imu,it,ex,ey,ez,ax,ay,az,temp
0,0,-0.007456964813173,0.021305613219738,0.002130561508238,-1.647235870361328,0.569828689098358,-9.883415222167968,27.63
0,1,-0.005326403304935,0.020240332931280,0.002130561508238,-1.623293638229370,0.459693729877472,-9.830741882324218,27.63
0,2,-0.005326403304935,0.020240332931280,0.002130561508238,-1.623293638229370,0.459693729877472,-9.830741882324218,27.63
0,3,-0.005326403304935,0.020240332931280,0.000000000000000,-1.613716483116150,0.498001545667648,-9.845107078552246,27.62
0,4,-0.007456964813173,0.021305613219738,0.002130561508238,-1.623293638229370,0.488424599170685,-9.883415222167968,27.62
0,5,-0.005326403304935,0.019175054505467,0.001065280754119,-1.685543656349182,0.498001545667648,-9.802011489868164,27.62
0,6,-0.005326403304935,0.022370895370841,0.004261123016477,-1.637658953666687,0.574617147445679,-9.849896430969238,27.62
0,7,-0.006391684990376,0.019175054505467,0.002130561508238,-1.632870435714722,0.512367010116577,-9.859473228454589,27.63
0,8,-0.006391684990376,0.019175054505467,0.002130561508238,-1.632870435714722,0.512367010116577,-9.859473228454589,27.63
0,9,-0.006391684990376,0.020240332931280,0.003195842495188,-1.623293638229370,0.512367010116577,-9.845107078552246,27.62
0,10,-0.005326403304935,0.021305613219738,0.002130561508238,-1.647235870361328,0.517155468463898,-9.854684829711914,27.62
0,11,-0.006391684990376,0.019175054505467,0.002130561508238,-1.671178221702576,0.502790033817291,-9.907357215881347,27.63
0,12,-0.006391684990376,0.021305613219738,0.002130561508238,-1.632870435714722,0.536309361457825,-9.854684829711914,27.62
0,13,-0.006391684990376,0.020240332931280,0.004261123016477,-1.685543656349182,0.550674796104431,-9.821165084838867,27.62
0,14,-0.006391684990376,0.020240332931280,0.002130561508238,-1.632870435714722,0.512367010116577,-9.926511764526367,27.64
0,15,-0.006391684990376,0.020240332931280,0.002130561508238,-1.632870435714722,0.512367010116577,-9.926511764526367,27.64
0,16,-0.005326403304935,0.021305613219738,0.003195842495188,-1.599351167678833,0.526732385158539,-9.825953483581542,27.60
0,17,-0.007456964813173,0.021305613219738,0.002130561508238,-1.628082036972046,0.512367010116577,-9.892992019653320,27.63
0,18,-0.005326403304935,0.020240332931280,0.001065280754119,-1.618505001068115,0.498001545667648,-9.888203620910644,27.63
0,19,-0.006391684990376,0.021305613219738,0.002130561508238,-1.637658953666687,0.536309361457825,-9.840318679809570,27.62
0,20,-0.006391684990376,0.020240332931280,0.001065280754119,-1.608928084373474,0.498001545667648,-9.864261627197265,27.63
0,21,-0.005326403304935,0.021305613219738,0.002130561508238,-1.594562530517578,0.531520903110504,-9.816376686096191,27.63
0,22,-0.005326403304935,0.021305613219738,0.002130561508238,-1.594562530517578,0.531520903110504,-9.816376686096191,27.63
0,23,-0.005326403304935,0.021305613219738,0.002130561508238,-1.613716483116150,0.512367010116577,-9.883415222167968,27.63
0,24,-0.006391684990376,0.019175054505467,0.001065280754119,-1.675966739654541,0.550674796104431,-9.864261627197265,27.61
0,25,-0.006391684990376,0.021305613219738,0.002130561508238,-1.580197215080261,0.507578492164612,-9.835530281066894,27.63
0,26,-0.006391684990376,0.020240332931280,0.002130561508238,-1.628082036972046,0.507578492164612,-9.825953483581542,27.64
0,27,-0.006391684990376,0.020240332931280,0.002130561508238,-1.628082036972046,0.560251772403717,-9.916934013366699,27.62
0,28,-0.006391684990376,0.020240332931280,0.003195842495188,-1.656812906265259,0.507578492164612,-9.878626823425292,27.61
0,29,-0.007456964813173,0.022370895370841,0.002130561508238,-1.613716483116150,0.502790033817291,-9.825953483581542,27.65
0,30,-0.006391684990376,0.020240332931280,0.002130561508238,-1.656812906265259,0.469270706176758,-9.902568817138671,27.65
0,31,-0.005326403304935,0.020240332931280,0.002130561508238,-1.666389822959900,0.536309361457825,-9.854684829711914,27.65
0,32,-0.006391684990376,0.021305613219738,0.003195842495188,-1.637658953666687,0.531520903110504,-9.849896430969238,27.65
0,33,-0.005326403304935,0.020240332931280,0.002130561508238,-1.661601424217224,0.512367010116577,-9.888203620910644,27.66
0,34,-0.006391684990376,0.021305613219738,0.002130561508238,-1.642447471618652,0.507578492164612,-9.811588287353515,27.63
0,35,-0.006391684990376,0.021305613219738,0.002130561508238,-1.642447471618652,0.507578492164612,-9.811588287353515,27.63
0,36,-0.007456964813173,0.020240332931280,0.002130561508238,-1.623293638229370,0.526732385158539,-9.859473228454589,27.65
0,37,-0.006391684990376,0.019175054505467,0.001065280754119,-1.637658953666687,0.502790033817291,-9.845107078552246,27.64
0,38,-0.005326403304935,0.021305613219738,0.003195842495188,-1.613716483116150,0.474059164524078,-9.835530281066894,27.64
0,39,-0.006391684990376,0.020240332931280,0.003195842495188,-1.656812906265259,0.574617147445679,-9.835530281066894,27.65
0,40,-0.007456964813173,0.021305613219738,0.001065280754119,-1.647235870361328,0.450116783380508,-9.859473228454589,27.62
0,41,-0.006391684990376,0.021305613219738,0.002130561508238,-1.613716483116150,0.550674796104431,-9.840318679809570,27.65
0,42,-0.006391684990376,0.021305613219738,0.002130561508238,-1.613716483116150,0.550674796104431,-9.840318679809570,27.65
0,43,-0.007456964813173,0.021305613219738,0.001065280754119,-1.642447471618652,0.474059164524078,-9.888203620910644,27.63
0,44,-0.004261123016477,0.020240332931280,0.001065280754119,-1.647235870361328,0.531520903110504,-9.806799888610839,27.66
0,45,-0.006391684990376,0.021305613219738,0.002130561508238,-1.618505001068115,0.512367010116577,-9.845107078552246,27.63
0,46,-0.005326403304935,0.020240332931280,0.001065280754119,-1.642447471618652,0.521943926811218,-9.830741882324218,27.65
0,47,-0.006391684990376,0.021305613219738,0.003195842495188,-1.628082036972046,0.536309361457825,-9.859473228454589,27.64
0,48,-0.006391684990376,0.020240332931280,0.002130561508238,-1.652024269104004,0.469270706176758,-9.864261627197265,27.62
0,49,-0.006391684990376,0.022370895370841,0.003195842495188,-1.599351167678833,0.531520903110504,-9.859473228454589,27.64
0,50,-0.007456964813173,0.019175054505467,0.002130561508238,-1.642447471618652,0.517155468463898,-9.825953483581542,27.64
0,51,-0.005326403304935,0.020240332931280,0.001065280754119,-1.608928084373474,0.483636111021042,-9.907357215881347,27.65
0,52,-0.006391684990376,0.020240332931280,0.002130561508238,-1.618505001068115,0.545886337757111,-9.840318679809570,27.65
0,53,-0.006391684990376,0.020240332931280,0.002130561508238,-1.675966739654541,0.521943926811218,-9.840318679809570,27.63
0,54,-0.006391684990376,0.020240332931280,0.003195842495188,-1.623293638229370,0.555463254451752,-9.854684829711914,27.63
0,55,-0.006391684990376,0.020240332931280,0.003195842495188,-1.623293638229370,0.555463254451752,-9.854684829711914,27.63
0,56,-0.005326403304935,0.021305613219738,0.001065280754119,-1.652024269104004,0.483636111021042,-9.907357215881347,27.63
0,57,-0.006391684990376,0.020240332931280,0.001065280754119,-1.613716483116150,0.536309361457825,-9.854684829711914,27.64
0,58,-0.006391684990376,0.020240332931280,0.002130561508238,-1.589774131774902,0.517155468463898,-9.849896430969238,27.62
0,59,-0.005326403304935,0.019175054505467,0.002130561508238,-1.661601424217224,0.541097819805145,-9.921723365783691,27.66
0,60,-0.007456964813173,0.021305613219738,0.003195842495188,-1.537100911140442,0.517155468463898,-9.921723365783691,27.65
0,61,-0.006391684990376,0.020240332931280,0.001065280754119,-1.652024269104004,0.536309361457825,-9.897780418395996,27.63
0,62,-0.006391684990376,0.020240332931280,0.001065280754119,-1.652024269104004,0.536309361457825,-9.897780418395996,27.63
0,63,-0.007456964813173,0.021305613219738,0.003195842495188,-1.656812906265259,0.517155468463898,-9.854684829711914,27.66
0,64,-0.006391684990376,0.020240332931280,0.001065280754119,-1.632870435714722,0.521943926811218,-9.835530281066894,27.63
0,65,-0.006391684990376,0.020240332931280,0.002130561508238,-1.652024269104004,0.574617147445679,-9.854684829711914,27.63
0,66,-0.006391684990376,0.021305613219738,0.002130561508238,-1.661601424217224,0.550674796104431,-9.802011489868164,27.64
0,67,-0.007456964813173,0.020240332931280,0.002130561508238,-1.652024269104004,0.531520903110504,-9.888203620910644,27.64
0,68,-0.005326403304935,0.019175054505467,0.003195842495188,-1.608928084373474,0.517155468463898,-9.830741882324218,27.64
0,69,-0.006391684990376,0.020240332931280,0.001065280754119,-1.623293638229370,0.565040230751038,-9.811588287353515,27.63
0,70,-0.004261123016477,0.020240332931280,0.002130561508238,-1.642447471618652,0.541097819805145,-9.873838424682617,27.67
0,71,-0.006391684990376,0.021305613219738,0.003195842495188,-1.666389822959900,0.521943926811218,-9.840318679809570,27.67
0,72,-0.006391684990376,0.019175054505467,0.001065280754119,-1.594562530517578,0.531520903110504,-9.849896430969238,27.64
0,73,-0.006391684990376,0.020240332931280,0.002130561508238,-1.623293638229370,0.588982582092285,-9.797223091125488,27.63
0,74,-0.005326403304935,0.019175054505467,0.001065280754119,-1.666389822959900,0.517155468463898,-9.864261627197265,27.64
0,75,-0.005326403304935,0.019175054505467,0.001065280754119,-1.666389822959900,0.517155468463898,-9.864261627197265,27.64
0,76,-0.006391684990376,0.020240332931280,0.004261123016477,-1.695120692253113,0.541097819805145,-9.825953483581542,27.64
0,77,-0.006391684990376,0.021305613219738,0.002130561508238,-1.580197215080261,0.517155468463898,-9.916934013366699,27.64
0,78,-0.005326403304935,0.021305613219738,0.002130561508238,-1.584985733032227,0.498001545667648,-9.878626823425292,27.63
0,79,-0.006391684990376,0.021305613219738,0.002130561508238,-1.671178221702576,0.512367010116577,-9.845107078552246,27.66
0,80,-0.007456964813173,0.020240332931280,0.002130561508238,-1.594562530517578,0.536309361457825,-9.916934013366699,27.66
0,81,-0.005326403304935,0.020240332931280,0.003195842495188,-1.632870435714722,0.512367010116577,-9.835530281066894,27.63
0,82,-0.005326403304935,0.020240332931280,0.003195842495188,-1.632870435714722,0.512367010116577,-9.835530281066894,27.63
0,83,-0.006391684990376,0.021305613219738,0.003195842495188,-1.618505001068115,0.526732385158539,-9.859473228454589,27.64
0,84,-0.005326403304935,0.020240332931280,0.003195842495188,-1.613716483116150,0.531520903110504,-9.888203620910644,27.65
0,85,-0.006391684990376,0.020240332931280,0.003195842495188,-1.656812906265259,0.498001545667648,-9.830741882324218,27.64
0,86,-0.008522246032953,0.022370895370841,0.003195842495188,-1.623293638229370,0.560251772403717,-9.940876960754394,27.65
0,87,-0.005326403304935,0.019175054505467,0.002130561508238,-1.628082036972046,0.507578492164612,-9.811588287353515,27.63
0,88,-0.005326403304935,0.020240332931280,0.004261123016477,-1.623293638229370,0.531520903110504,-9.835530281066894,27.62
0,89,-0.005326403304935,0.020240332931280,0.002130561508238,-1.604139685630798,0.517155468463898,-9.859473228454589,27.66
0,90,-0.006391684990376,0.021305613219738,0.002130561508238,-1.656812906265259,0.536309361457825,-9.869050025939941,27.64
0,91,-0.006391684990376,0.020240332931280,0.002130561508238,-1.661601424217224,0.526732385158539,-9.825953483581542,27.64
0,92,-0.006391684990376,0.021305613219738,0.001065280754119,-1.628082036972046,0.478847652673721,-9.912145614624023,27.62
0,93,-0.007456964813173,0.020240332931280,0.002130561508238,-1.685543656349182,0.493213087320328,-9.873838424682617,27.64
0,94,-0.006391684990376,0.021305613219738,0.002130561508238,-1.652024269104004,0.493213087320328,-9.816376686096191,27.67
0,95,-0.006391684990376,0.021305613219738,0.002130561508238,-1.652024269104004,0.493213087320328,-9.816376686096191,27.67
0,96,-0.005326403304935,0.021305613219738,0.003195842495188,-1.647235870361328,0.521943926811218,-9.892992019653320,27.64
0,97,-0.005326403304935,0.021305613219738,0.001065280754119,-1.594562530517578,0.502790033817291,-9.931300163269042,27.66
0,98,-0.004261123016477,0.020240332931280,0.003195842495188,-1.647235870361328,0.545886337757111,-9.864261627197265,27.66
0,99,-0.006391684990376,0.021305613219738,0.003195842495188,-1.666389822959900,0.488424599170685,-9.931300163269042,27.67
0,100,-0.005326403304935,0.020240332931280,0.001065280754119,-1.628082036972046,0.478847652673721,-9.830741882324218,27.66
0,101,-0.006391684990376,0.021305613219738,0.004261123016477,-1.632870435714722,0.517155468463898,-9.878626823425292,27.64
0,102,-0.006391684990376,0.021305613219738,0.004261123016477,-1.632870435714722,0.517155468463898,-9.878626823425292,27.64
0,103,-0.005326403304935,0.021305613219738,0.003195842495188,-1.613716483116150,0.507578492164612,-9.840318679809570,27.67
0,104,-0.007456964813173,0.019175054505467,0.002130561508238,-1.642447471618652,0.536309361457825,-9.840318679809570,27.65
0,105,-0.006391684990376,0.020240332931280,0.003195842495188,-1.661601424217224,0.517155468463898,-9.888203620910644,27.65
0,106,-0.006391684990376,0.021305613219738,0.002130561508238,-1.589774131774902,0.526732385158539,-9.878626823425292,27.67
0,107,-0.005326403304935,0.020240332931280,0.001065280754119,-1.637658953666687,0.541097819805145,-9.902568817138671,27.67
0,108,-0.007456964813173,0.021305613219738,0.003195842495188,-1.628082036972046,0.517155468463898,-9.864261627197265,27.67
0,109,-0.007456964813173,0.021305613219738,0.003195842495188,-1.628082036972046,0.517155468463898,-9.864261627197265,27.67
0,110,-0.005326403304935,0.021305613219738,0.002130561508238,-1.623293638229370,0.507578492164612,-9.902568817138671,27.65
0,111,-0.005326403304935,0.020240332931280,0.002130561508238,-1.656812906265259,0.498001545667648,-9.921723365783691,27.64
0,112,-0.006391684990376,0.021305613219738,0.003195842495188,-1.570620298385620,0.521943926811218,-9.821165084838867,27.68
0,113,-0.004261123016477,0.019175054505467,0.001065280754119,-1.642447471618652,0.512367010116577,-9.854684829711914,27.64
0,114,-0.005326403304935,0.022370895370841,0.002130561508238,-1.575408697128296,0.517155468463898,-9.830741882324218,27.66
0,115,-0.005326403304935,0.022370895370841,0.002130561508238,-1.575408697128296,0.517155468463898,-9.830741882324218,27.66
0,116,-0.006391684990376,0.021305613219738,0.002130561508238,-1.608928084373474,0.507578492164612,-9.806799888610839,27.65
0,117,-0.005326403304935,0.020240332931280,0.002130561508238,-1.589774131774902,0.521943926811218,-9.840318679809570,27.66
0,118,-0.005326403304935,0.021305613219738,0.001065280754119,-1.637658953666687,0.464482218027115,-9.835530281066894,27.66
0,119,-0.006391684990376,0.020240332931280,0.003195842495188,-1.695120692253113,0.545886337757111,-9.854684829711914,27.65
0,120,-0.006391684990376,0.021305613219738,0.002130561508238,-1.589774131774902,0.531520903110504,-9.883415222167968,27.64
0,121,-0.006391684990376,0.021305613219738,0.002130561508238,-1.637658953666687,0.526732385158539,-9.921723365783691,27.67
0,122,-0.006391684990376,0.021305613219738,0.002130561508238,-1.637658953666687,0.526732385158539,-9.921723365783691,27.67
0,123,-0.006391684990376,0.021305613219738,0.002130561508238,-1.604139685630798,0.502790033817291,-9.825953483581542,27.66
0,124,-0.006391684990376,0.020240332931280,0.002130561508238,-1.632870435714722,0.488424599170685,-9.873838424682617,27.67
0,125,-0.005326403304935,0.021305613219738,0.002130561508238,-1.652024269104004,0.545886337757111,-9.869050025939941,27.68
0,126,-0.006391684990376,0.019175054505467,0.002130561508238,-1.637658953666687,0.536309361457825,-9.830741882324218,27.66
0,127,-0.006391684990376,0.020240332931280,0.003195842495188,-1.594562530517578,0.579405665397644,-9.830741882324218,27.67
0,128,-0.005326403304935,0.020240332931280,0.003195842495188,-1.642447471618652,0.512367010116577,-9.840318679809570,27.68
0,129,-0.005326403304935,0.020240332931280,0.003195842495188,-1.642447471618652,0.512367010116577,-9.840318679809570,27.68
0,130,-0.005326403304935,0.019175054505467,0.001065280754119,-1.637658953666687,0.507578492164612,-9.926511764526367,27.66
0,131,-0.006391684990376,0.021305613219738,0.002130561508238,-1.642447471618652,0.502790033817291,-9.821165084838867,27.67
0,132,-0.007456964813173,0.022370895370841,0.000000000000000,-1.589774131774902,0.488424599170685,-9.849896430969238,27.66
0,133,-0.005326403304935,0.018109772354364,0.002130561508238,-1.632870435714722,0.512367010116577,-9.821165084838867,27.66
0,134,-0.006391684990376,0.020240332931280,0.003195842495188,-1.628082036972046,0.488424599170685,-9.758914947509765,27.66
0,135,-0.005326403304935,0.021305613219738,0.002130561508238,-1.623293638229370,0.502790033817291,-9.869050025939941,27.65
0,136,-0.006391684990376,0.021305613219738,0.002130561508238,-1.656812906265259,0.526732385158539,-9.825953483581542,27.66
0,137,-0.006391684990376,0.022370895370841,0.002130561508238,-1.604139685630798,0.579405665397644,-9.830741882324218,27.67
0,138,-0.006391684990376,0.020240332931280,0.001065280754119,-1.608928084373474,0.502790033817291,-9.797223091125488,27.66
0,139,-0.005326403304935,0.022370895370841,0.002130561508238,-1.632870435714722,0.526732385158539,-9.878626823425292,27.66
0,140,-0.005326403304935,0.022370895370841,0.002130561508238,-1.652024269104004,0.512367010116577,-9.802011489868164,27.68
0,141,-0.006391684990376,0.021305613219738,0.002130561508238,-1.613716483116150,0.526732385158539,-9.825953483581542,27.66
0,142,-0.006391684990376,0.021305613219738,0.002130561508238,-1.613716483116150,0.526732385158539,-9.825953483581542,27.66
0,143,-0.006391684990376,0.021305613219738,0.002130561508238,-1.570620298385620,0.440539836883545,-9.892992019653320,27.66
0,144,-0.006391684990376,0.020240332931280,0.002130561508238,-1.628082036972046,0.526732385158539,-9.840318679809570,27.68
0,145,-0.006391684990376,0.021305613219738,0.001065280754119,-1.599351167678833,0.507578492164612,-9.892992019653320,27.66
0,146,-0.006391684990376,0.021305613219738,0.001065280754119,-1.675966739654541,0.526732385158539,-9.869050025939941,27.66
0,147,-0.005326403304935,0.021305613219738,0.001065280754119,-1.565831899642944,0.502790033817291,-9.816376686096191,27.67
0,148,-0.006391684990376,0.020240332931280,0.002130561508238,-1.613716483116150,0.493213087320328,-9.873838424682617,27.66
0,149,-0.006391684990376,0.020240332931280,0.002130561508238,-1.613716483116150,0.493213087320328,-9.873838424682617,27.66
0,150,-0.005326403304935,0.020240332931280,0.002130561508238,-1.584985733032227,0.498001545667648,-9.888203620910644,27.67
0,151,-0.006391684990376,0.020240332931280,0.003195842495188,-1.666389822959900,0.493213087320328,-9.873838424682617,27.65
0,152,-0.006391684990376,0.020240332931280,0.001065280754119,-1.589774131774902,0.555463254451752,-9.859473228454589,27.66
0,153,-0.007456964813173,0.020240332931280,0.003195842495188,-1.656812906265259,0.498001545667648,-9.873838424682617,27.67
0,154,-0.005326403304935,0.020240332931280,0.001065280754119,-1.623293638229370,0.541097819805145,-9.835530281066894,27.65
0,155,-0.006391684990376,0.020240332931280,0.003195842495188,-1.604139685630798,0.536309361457825,-9.912145614624023,27.68
0,156,-0.006391684990376,0.019175054505467,0.001065280754119,-1.680755257606506,0.550674796104431,-9.840318679809570,27.69
0,157,-0.005326403304935,0.021305613219738,0.002130561508238,-1.618505001068115,0.498001545667648,-9.840318679809570,27.64
0,158,-0.006391684990376,0.020240332931280,0.002130561508238,-1.647235870361328,0.541097819805145,-9.806799888610839,27.66
0,159,-0.006391684990376,0.020240332931280,0.002130561508238,-1.656812906265259,0.502790033817291,-9.869050025939941,27.67
0,160,-0.006391684990376,0.020240332931280,0.003195842495188,-1.575408697128296,0.555463254451752,-9.897780418395996,27.64
0,161,-0.005326403304935,0.019175054505467,0.002130561508238,-1.666389822959900,0.536309361457825,-9.864261627197265,27.67
0,162,-0.005326403304935,0.019175054505467,0.002130561508238,-1.666389822959900,0.536309361457825,-9.864261627197265,27.67
0,163,-0.006391684990376,0.021305613219738,0.003195842495188,-1.628082036972046,0.545886337757111,-9.840318679809570,27.66
0,164,-0.007456964813173,0.021305613219738,0.003195842495188,-1.618505001068115,0.536309361457825,-9.830741882324218,27.66
0,165,-0.006391684990376,0.020240332931280,0.003195842495188,-1.671178221702576,0.512367010116577,-9.830741882324218,27.66
0,166,-0.007456964813173,0.021305613219738,0.001065280754119,-1.599351167678833,0.536309361457825,-9.806799888610839,27.67
0,167,-0.006391684990376,0.019175054505467,0.003195842495188,-1.666389822959900,0.531520903110504,-9.806799888610839,27.68
0,168,-0.006391684990376,0.022370895370841,0.003195842495188,-1.532312512397766,0.541097819805145,-9.859473228454589,27.67
0,169,-0.006391684990376,0.022370895370841,0.003195842495188,-1.532312512397766,0.541097819805145,-9.859473228454589,27.67
0,170,-0.006391684990376,0.021305613219738,0.003195842495188,-1.604139685630798,0.541097819805145,-9.825953483581542,27.66
0,171,-0.007456964813173,0.020240332931280,0.002130561508238,-1.709486007690430,0.498001545667648,-9.840318679809570,27.66
0,172,-0.006391684990376,0.019175054505467,0.002130561508238,-1.584985733032227,0.517155468463898,-9.864261627197265,27.66
0,173,-0.007456964813173,0.021305613219738,0.003195842495188,-1.642447471618652,0.521943926811218,-9.849896430969238,27.69
0,174,-0.005326403304935,0.020240332931280,0.002130561508238,-1.608928084373474,0.459693729877472,-9.821165084838867,27.67
0,175,-0.006391684990376,0.021305613219738,0.002130561508238,-1.628082036972046,0.521943926811218,-9.878626823425292,27.68
0,176,-0.006391684990376,0.019175054505467,0.002130561508238,-1.642447471618652,0.488424599170685,-9.907357215881347,27.64
0,177,-0.007456964813173,0.021305613219738,0.002130561508238,-1.613716483116150,0.526732385158539,-9.840318679809570,27.66
0,178,-0.005326403304935,0.020240332931280,0.002130561508238,-1.652024269104004,0.521943926811218,-9.821165084838867,27.66
0,179,-0.006391684990376,0.022370895370841,0.002130561508238,-1.647235870361328,0.526732385158539,-9.840318679809570,27.65
0,180,-0.006391684990376,0.019175054505467,0.003195842495188,-1.632870435714722,0.536309361457825,-9.892992019653320,27.68
0,181,-0.006391684990376,0.022370895370841,0.002130561508238,-1.652024269104004,0.541097819805145,-9.816376686096191,27.67
0,182,-0.006391684990376,0.022370895370841,0.002130561508238,-1.652024269104004,0.541097819805145,-9.816376686096191,27.67
0,183,-0.006391684990376,0.021305613219738,0.002130561508238,-1.613716483116150,0.579405665397644,-9.873838424682617,27.66
0,184,-0.007456964813173,0.021305613219738,0.002130561508238,-1.647235870361328,0.531520903110504,-9.873838424682617,27.65
0,185,-0.005326403304935,0.021305613219738,0.002130561508238,-1.656812906265259,0.517155468463898,-9.830741882324218,27.67
0,186,-0.007456964813173,0.020240332931280,0.001065280754119,-1.623293638229370,0.521943926811218,-9.869050025939941,27.66
0,187,-0.005326403304935,0.019175054505467,0.002130561508238,-1.647235870361328,0.531520903110504,-9.849896430969238,27.67
0,188,-0.006391684990376,0.021305613219738,0.001065280754119,-1.637658953666687,0.531520903110504,-9.854684829711914,27.67
0,189,-0.006391684990376,0.021305613219738,0.001065280754119,-1.637658953666687,0.531520903110504,-9.854684829711914,27.67
0,190,-0.005326403304935,0.020240332931280,0.003195842495188,-1.666389822959900,0.502790033817291,-9.907357215881347,27.66
0,191,-0.007456964813173,0.021305613219738,0.003195842495188,-1.584985733032227,0.545886337757111,-9.835530281066894,27.68
0,192,-0.005326403304935,0.020240332931280,0.003195842495188,-1.637658953666687,0.502790033817291,-9.869050025939941,27.66
0,193,-0.006391684990376,0.020240332931280,0.002130561508238,-1.661601424217224,0.545886337757111,-9.883415222167968,27.66
0,194,-0.005326403304935,0.021305613219738,0.002130561508238,-1.604139685630798,0.512367010116577,-9.854684829711914,27.68
0,195,-0.006391684990376,0.020240332931280,0.002130561508238,-1.589774131774902,0.550674796104431,-9.825953483581542,27.67
0,196,-0.006391684990376,0.020240332931280,0.002130561508238,-1.589774131774902,0.550674796104431,-9.825953483581542,27.67
0,197,-0.005326403304935,0.021305613219738,0.002130561508238,-1.608928084373474,0.541097819805145,-9.854684829711914,27.68
0,198,-0.006391684990376,0.021305613219738,0.002130561508238,-1.632870435714722,0.550674796104431,-9.854684829711914,27.67
0,199,-0.007456964813173,0.021305613219738,0.002130561508238,-1.652024269104004,0.521943926811218,-9.864261627197265,27.68
0,200,-0.006391684990376,0.021305613219738,0.001065280754119,-1.647235870361328,0.545886337757111,-9.849896430969238,27.69
0,201,-0.006391684990376,0.021305613219738,0.003195842495188,-1.580197215080261,0.488424599170685,-9.873838424682617,27.67
0,202,-0.006391684990376,0.021305613219738,0.003195842495188,-1.580197215080261,0.488424599170685,-9.873838424682617,27.67
0,203,-0.006391684990376,0.021305613219738,0.001065280754119,-1.613716483116150,0.531520903110504,-9.926511764526367,27.68
0,204,-0.006391684990376,0.019175054505467,0.002130561508238,-1.661601424217224,0.555463254451752,-9.849896430969238,27.67
0,205,-0.006391684990376,0.020240332931280,0.003195842495188,-1.623293638229370,0.521943926811218,-9.854684829711914,27.66
0,206,-0.006391684990376,0.021305613219738,0.002130561508238,-1.642447471618652,0.555463254451752,-9.845107078552246,27.69
0,207,-0.005326403304935,0.020240332931280,0.002130561508238,-1.618505001068115,0.541097819805145,-9.816376686096191,27.70
0,208,-0.005326403304935,0.020240332931280,0.002130561508238,-1.647235870361328,0.517155468463898,-9.845107078552246,27.69
0,209,-0.005326403304935,0.020240332931280,0.002130561508238,-1.647235870361328,0.517155468463898,-9.845107078552246,27.69
0,210,-0.005326403304935,0.019175054505467,0.002130561508238,-1.661601424217224,0.507578492164612,-9.845107078552246,27.65
0,211,-0.007456964813173,0.021305613219738,0.001065280754119,-1.618505001068115,0.498001545667648,-9.802011489868164,27.68
0,212,-0.005326403304935,0.020240332931280,0.001065280754119,-1.613716483116150,0.512367010116577,-9.936088562011718,27.67
0,213,-0.006391684990376,0.020240332931280,0.003195842495188,-1.675966739654541,0.507578492164612,-9.912145614624023,27.66
0,214,-0.006391684990376,0.021305613219738,0.002130561508238,-1.575408697128296,0.531520903110504,-9.897780418395996,27.65
0,215,-0.005326403304935,0.021305613219738,0.001065280754119,-1.608928084373474,0.469270706176758,-9.864261627197265,27.67
0,216,-0.005326403304935,0.021305613219738,0.001065280754119,-1.608928084373474,0.469270706176758,-9.864261627197265,27.67
0,217,-0.006391684990376,0.020240332931280,0.002130561508238,-1.618505001068115,0.483636111021042,-9.854684829711914,27.68
0,218,-0.006391684990376,0.021305613219738,0.004261123016477,-1.613716483116150,0.545886337757111,-9.902568817138671,27.68
0,219,-0.006391684990376,0.020240332931280,0.002130561508238,-1.656812906265259,0.478847652673721,-9.931300163269042,27.69
0,220,-0.006391684990376,0.020240332931280,0.002130561508238,-1.594562530517578,0.526732385158539,-9.883415222167968,27.69
0,221,-0.005326403304935,0.018109772354364,0.003195842495188,-1.714274525642395,0.531520903110504,-9.864261627197265,27.66
0,222,-0.006391684990376,0.022370895370841,0.002130561508238,-1.580197215080261,0.517155468463898,-9.849896430969238,27.68
0,223,-0.004261123016477,0.019175054505467,0.001065280754119,-1.613716483116150,0.521943926811218,-9.849896430969238,27.66
0,224,-0.007456964813173,0.021305613219738,0.003195842495188,-1.604139685630798,0.526732385158539,-9.897780418395996,27.66
0,225,-0.006391684990376,0.021305613219738,0.002130561508238,-1.623293638229370,0.560251772403717,-9.854684829711914,27.69
0,226,-0.006391684990376,0.021305613219738,0.002130561508238,-1.608928084373474,0.502790033817291,-9.840318679809570,27.69
0,227,-0.005326403304935,0.021305613219738,0.002130561508238,-1.628082036972046,0.531520903110504,-9.873838424682617,27.68
0,228,-0.006391684990376,0.020240332931280,0.002130561508238,-1.661601424217224,0.507578492164612,-9.878626823425292,27.69
0,229,-0.006391684990376,0.020240332931280,0.002130561508238,-1.661601424217224,0.507578492164612,-9.878626823425292,27.69
0,230,-0.006391684990376,0.020240332931280,0.003195842495188,-1.642447471618652,0.517155468463898,-9.964819908142089,27.67
0,231,-0.005326403304935,0.022370895370841,0.002130561508238,-1.618505001068115,0.507578492164612,-9.859473228454589,27.69
0,232,-0.005326403304935,0.020240332931280,0.001065280754119,-1.632870435714722,0.555463254451752,-9.845107078552246,27.68
0,233,-0.008522246032953,0.021305613219738,0.002130561508238,-1.652024269104004,0.483636111021042,-9.816376686096191,27.69
0,234,-0.004261123016477,0.020240332931280,0.001065280754119,-1.661601424217224,0.569828689098358,-9.907357215881347,27.69
0,235,-0.006391684990376,0.022370895370841,0.002130561508238,-1.594562530517578,0.555463254451752,-9.888203620910644,27.65
0,236,-0.006391684990376,0.022370895370841,0.002130561508238,-1.594562530517578,0.555463254451752,-9.888203620910644,27.65
0,237,-0.006391684990376,0.021305613219738,0.002130561508238,-1.589774131774902,0.502790033817291,-9.821165084838867,27.70
0,238,-0.007456964813173,0.020240332931280,0.002130561508238,-1.637658953666687,0.545886337757111,-9.811588287353515,27.71
0,239,-0.006391684990376,0.020240332931280,0.002130561508238,-1.642447471618652,0.555463254451752,-9.845107078552246,27.68
0,240,-0.006391684990376,0.021305613219738,0.004261123016477,-1.613716483116150,0.541097819805145,-9.907357215881347,27.68
0,241,-0.006391684990376,0.019175054505467,0.002130561508238,-1.656812906265259,0.512367010116577,-9.845107078552246,27.68
0,242,-0.006391684990376,0.022370895370841,0.001065280754119,-1.642447471618652,0.545886337757111,-9.940876960754394,27.68
0,243,-0.006391684990376,0.018109772354364,0.001065280754119,-1.580197215080261,0.541097819805145,-9.888203620910644,27.68
0,244,-0.006391684990376,0.020240332931280,0.002130561508238,-1.613716483116150,0.541097819805145,-9.825953483581542,27.69
0,245,-0.006391684990376,0.020240332931280,0.001065280754119,-1.632870435714722,0.498001545667648,-9.845107078552246,27.68
0,246,-0.004261123016477,0.019175054505467,0.002130561508238,-1.604139685630798,0.521943926811218,-9.888203620910644,27.69
0,247,-0.006391684990376,0.021305613219738,0.003195842495188,-1.642447471618652,0.536309361457825,-9.849896430969238,27.68
0,248,-0.008522246032953,0.022370895370841,0.002130561508238,-1.623293638229370,0.526732385158539,-9.816376686096191,27.68
0,249,-0.008522246032953,0.022370895370841,0.002130561508238,-1.623293638229370,0.526732385158539,-9.816376686096191,27.68
0,250,-0.006391684990376,0.020240332931280,0.002130561508238,-1.652024269104004,0.517155468463898,-9.849896430969238,27.68
0,251,-0.006391684990376,0.021305613219738,0.002130561508238,-1.647235870361328,0.507578492164612,-9.878626823425292,27.66
0,252,-0.006391684990376,0.020240332931280,0.000000000000000,-1.599351167678833,0.507578492164612,-9.797223091125488,27.70
0,253,-0.008522246032953,0.021305613219738,0.002130561508238,-1.647235870361328,0.507578492164612,-9.912145614624023,27.69
0,254,-0.006391684990376,0.020240332931280,0.002130561508238,-1.584985733032227,0.517155468463898,-9.883415222167968,27.68
0,255,-0.007456964813173,0.020240332931280,0.003195842495188,-1.608928084373474,0.526732385158539,-9.854684829711914,27.72
0,256,-0.007456964813173,0.020240332931280,0.003195842495188,-1.608928084373474,0.526732385158539,-9.854684829711914,27.72
0,257,-0.007456964813173,0.022370895370841,0.002130561508238,-1.647235870361328,0.507578492164612,-9.825953483581542,27.69
0,258,-0.006391684990376,0.021305613219738,0.004261123016477,-1.608928084373474,0.550674796104431,-9.816376686096191,27.67
0,259,-0.006391684990376,0.020240332931280,0.001065280754119,-1.671178221702576,0.464482218027115,-9.835530281066894,27.70
0,260,-0.006391684990376,0.021305613219738,0.002130561508238,-1.594562530517578,0.541097819805145,-9.825953483581542,27.70
0,261,-0.006391684990376,0.021305613219738,0.002130561508238,-1.632870435714722,0.526732385158539,-9.825953483581542,27.70
0,262,-0.006391684990376,0.020240332931280,0.002130561508238,-1.666389822959900,0.493213087320328,-9.969608306884765,27.65
0,263,-0.005326403304935,0.021305613219738,0.002130561508238,-1.618505001068115,0.545886337757111,-9.830741882324218,27.69
0,264,-0.006391684990376,0.020240332931280,0.002130561508238,-1.632870435714722,0.521943926811218,-9.902568817138671,27.72
0,265,-0.006391684990376,0.021305613219738,0.002130561508238,-1.647235870361328,0.560251772403717,-9.821165084838867,27.70
0,266,-0.005326403304935,0.022370895370841,0.001065280754119,-1.594562530517578,0.536309361457825,-9.864261627197265,27.68
0,267,-0.007456964813173,0.021305613219738,0.004261123016477,-1.656812906265259,0.517155468463898,-9.859473228454589,27.70
0,268,-0.006391684990376,0.020240332931280,0.002130561508238,-1.652024269104004,0.521943926811218,-9.883415222167968,27.71
0,269,-0.006391684990376,0.020240332931280,0.002130561508238,-1.652024269104004,0.521943926811218,-9.883415222167968,27.71
0,270,-0.006391684990376,0.022370895370841,0.003195842495188,-1.647235870361328,0.560251772403717,-9.854684829711914,27.70
0,271,-0.006391684990376,0.020240332931280,0.001065280754119,-1.628082036972046,0.512367010116577,-9.802011489868164,27.70
0,272,-0.006391684990376,0.021305613219738,0.002130561508238,-1.608928084373474,0.521943926811218,-9.873838424682617,27.71
0,273,-0.006391684990376,0.019175054505467,0.004261123016477,-1.699909210205078,0.531520903110504,-9.873838424682617,27.69
0,274,-0.005326403304935,0.022370895370841,0.003195842495188,-1.575408697128296,0.521943926811218,-9.873838424682617,27.70
0,275,-0.006391684990376,0.018109772354364,0.002130561508238,-1.656812906265259,0.517155468463898,-9.825953483581542,27.68
0,276,-0.006391684990376,0.018109772354364,0.002130561508238,-1.656812906265259,0.517155468463898,-9.825953483581542,27.68
0,277,-0.004261123016477,0.020240332931280,0.002130561508238,-1.580197215080261,0.507578492164612,-9.854684829711914,27.70
0,278,-0.006391684990376,0.021305613219738,0.002130561508238,-1.632870435714722,0.526732385158539,-9.811588287353515,27.69
0,279,-0.006391684990376,0.021305613219738,0.002130561508238,-1.642447471618652,0.517155468463898,-9.845107078552246,27.67
0,280,-0.006391684990376,0.020240332931280,0.002130561508238,-1.652024269104004,0.488424599170685,-9.806799888610839,27.68
0,281,-0.008522246032953,0.021305613219738,0.002130561508238,-1.584985733032227,0.531520903110504,-9.816376686096191,27.69
0,282,-0.006391684990376,0.021305613219738,0.003195842495188,-1.647235870361328,0.502790033817291,-9.845107078552246,27.67
0,283,-0.006391684990376,0.022370895370841,0.002130561508238,-1.613716483116150,0.531520903110504,-9.830741882324218,27.69
0,284,-0.004261123016477,0.019175054505467,0.002130561508238,-1.647235870361328,0.512367010116577,-9.849896430969238,27.70
0,285,-0.007456964813173,0.020240332931280,0.002130561508238,-1.628082036972046,0.541097819805145,-9.869050025939941,27.69
0,286,-0.006391684990376,0.021305613219738,0.003195842495188,-1.623293638229370,0.536309361457825,-9.840318679809570,27.70
0,287,-0.006391684990376,0.020240332931280,0.003195842495188,-1.599351167678833,0.483636111021042,-9.849896430969238,27.69
0,288,-0.005326403304935,0.020240332931280,0.003195842495188,-1.671178221702576,0.521943926811218,-9.902568817138671,27.71
0,289,-0.005326403304935,0.020240332931280,0.003195842495188,-1.671178221702576,0.521943926811218,-9.902568817138671,27.71
0,290,-0.005326403304935,0.019175054505467,0.002130561508238,-1.666389822959900,0.512367010116577,-9.825953483581542,27.68
0,291,-0.006391684990376,0.020240332931280,0.003195842495188,-1.647235870361328,0.464482218027115,-9.821165084838867,27.69
0,292,-0.006391684990376,0.021305613219738,0.002130561508238,-1.608928084373474,0.521943926811218,-9.849896430969238,27.70
0,293,-0.006391684990376,0.020240332931280,0.001065280754119,-1.666389822959900,0.560251772403717,-9.854684829711914,27.69
0,294,-0.007456964813173,0.020240332931280,0.002130561508238,-1.623293638229370,0.531520903110504,-9.864261627197265,27.69
0,295,-0.007456964813173,0.021305613219738,0.002130561508238,-1.618505001068115,0.498001545667648,-9.845107078552246,27.73
0,296,-0.007456964813173,0.021305613219738,0.002130561508238,-1.618505001068115,0.498001545667648,-9.845107078552246,27.73
0,297,-0.005326403304935,0.020240332931280,0.001065280754119,-1.608928084373474,0.521943926811218,-9.859473228454589,27.69
0,298,-0.006391684990376,0.020240332931280,0.002130561508238,-1.618505001068115,0.512367010116577,-9.883415222167968,27.68
0,299,-0.005326403304935,0.021305613219738,0.002130561508238,-1.608928084373474,0.545886337757111,-9.878626823425292,27.70
0,300,-0.006391684990376,0.021305613219738,0.002130561508238,-1.652024269104004,0.512367010116577,-9.854684829711914,27.72
0,301,-0.005326403304935,0.020240332931280,0.003195842495188,-1.623293638229370,0.526732385158539,-9.835530281066894,27.70
0,302,-0.006391684990376,0.021305613219738,0.002130561508238,-1.642447471618652,0.531520903110504,-9.840318679809570,27.70
0,303,-0.006391684990376,0.021305613219738,0.003195842495188,-1.623293638229370,0.526732385158539,-9.878626823425292,27.69
0,304,-0.005326403304935,0.021305613219738,0.001065280754119,-1.618505001068115,0.498001545667648,-9.830741882324218,27.69
0,305,-0.006391684990376,0.020240332931280,0.003195842495188,-1.637658953666687,0.574617147445679,-9.940876960754394,27.70
0,306,-0.005326403304935,0.021305613219738,0.002130561508238,-1.628082036972046,0.560251772403717,-9.902568817138671,27.70
0,307,-0.006391684990376,0.022370895370841,0.003195842495188,-1.680755257606506,0.555463254451752,-9.873838424682617,27.70
0,308,-0.006391684990376,0.020240332931280,0.002130561508238,-1.613716483116150,0.517155468463898,-9.825953483581542,27.69
0,309,-0.006391684990376,0.020240332931280,0.002130561508238,-1.613716483116150,0.517155468463898,-9.825953483581542,27.69
0,310,-0.006391684990376,0.021305613219738,0.003195842495188,-1.642447471618652,0.507578492164612,-9.840318679809570,27.70
0,311,-0.005326403304935,0.021305613219738,0.003195842495188,-1.656812906265259,0.512367010116577,-9.787646293640136,27.69
0,312,-0.006391684990376,0.022370895370841,0.003195842495188,-1.580197215080261,0.498001545667648,-9.888203620910644,27.71
0,313,-0.006391684990376,0.020240332931280,0.003195842495188,-1.647235870361328,0.502790033817291,-9.869050025939941,27.69
0,314,-0.006391684990376,0.021305613219738,0.001065280754119,-1.589774131774902,0.512367010116577,-9.840318679809570,27.70
0,315,-0.005326403304935,0.020240332931280,0.001065280754119,-1.623293638229370,0.498001545667648,-9.811588287353515,27.73
0,316,-0.005326403304935,0.020240332931280,0.001065280754119,-1.623293638229370,0.498001545667648,-9.811588287353515,27.73
0,317,-0.005326403304935,0.021305613219738,0.001065280754119,-1.570620298385620,0.550674796104431,-9.811588287353515,27.71
0,318,-0.005326403304935,0.019175054505467,0.002130561508238,-1.618505001068115,0.536309361457825,-9.873838424682617,27.70
0,319,-0.006391684990376,0.022370895370841,0.002130561508238,-1.613716483116150,0.502790033817291,-9.869050025939941,27.70
0,320,-0.005326403304935,0.021305613219738,0.002130561508238,-1.604139685630798,0.531520903110504,-9.936088562011718,27.69
0,321,-0.005326403304935,0.019175054505467,0.002130561508238,-1.642447471618652,0.531520903110504,-9.825953483581542,27.69
0,322,-0.006391684990376,0.021305613219738,0.003195842495188,-1.628082036972046,0.565040230751038,-9.825953483581542,27.69
0,323,-0.004261123016477,0.020240332931280,0.001065280754119,-1.666389822959900,0.512367010116577,-9.873838424682617,27.72
0,324,-0.005326403304935,0.021305613219738,0.002130561508238,-1.618505001068115,0.545886337757111,-9.859473228454589,27.67
0,325,-0.006391684990376,0.021305613219738,0.004261123016477,-1.647235870361328,0.493213087320328,-9.873838424682617,27.72
0,326,-0.006391684990376,0.020240332931280,0.002130561508238,-1.570620298385620,0.574617147445679,-9.845107078552246,27.69
0,327,-0.006391684990376,0.020240332931280,0.002130561508238,-1.666389822959900,0.526732385158539,-9.859473228454589,27.69
0,328,-0.006391684990376,0.021305613219738,0.001065280754119,-1.589774131774902,0.541097819805145,-9.845107078552246,27.71
0,329,-0.006391684990376,0.021305613219738,0.001065280754119,-1.589774131774902,0.541097819805145,-9.845107078552246,27.71
0,330,-0.008522246032953,0.021305613219738,0.004261123016477,-1.652024269104004,0.507578492164612,-9.888203620910644,27.70
0,331,-0.006391684990376,0.021305613219738,0.002130561508238,-1.604139685630798,0.493213087320328,-9.902568817138671,27.69
0,332,-0.006391684990376,0.020240332931280,0.002130561508238,-1.637658953666687,0.536309361457825,-9.835530281066894,27.72
0,333,-0.006391684990376,0.020240332931280,0.002130561508238,-1.608928084373474,0.541097819805145,-9.907357215881347,27.71
0,334,-0.006391684990376,0.021305613219738,0.002130561508238,-1.632870435714722,0.493213087320328,-9.845107078552246,27.71
0,335,-0.007456964813173,0.022370895370841,0.003195842495188,-1.647235870361328,0.526732385158539,-9.845107078552246,27.70
0,336,-0.007456964813173,0.022370895370841,0.003195842495188,-1.647235870361328,0.526732385158539,-9.845107078552246,27.70
0,337,-0.007456964813173,0.021305613219738,0.001065280754119,-1.594562530517578,0.521943926811218,-9.835530281066894,27.71
0,338,-0.005326403304935,0.020240332931280,0.001065280754119,-1.661601424217224,0.526732385158539,-9.845107078552246,27.72
0,339,-0.006391684990376,0.021305613219738,0.002130561508238,-1.623293638229370,0.526732385158539,-9.840318679809570,27.71
0,340,-0.006391684990376,0.020240332931280,0.002130561508238,-1.656812906265259,0.545886337757111,-9.845107078552246,27.74
0,341,-0.006391684990376,0.021305613219738,0.003195842495188,-1.632870435714722,0.526732385158539,-9.849896430969238,27.69
0,342,-0.006391684990376,0.021305613219738,0.001065280754119,-1.613716483116150,0.550674796104431,-9.821165084838867,27.70
0,343,-0.006391684990376,0.021305613219738,0.001065280754119,-1.556254744529724,0.498001545667648,-9.873838424682617,27.68
0,344,-0.008522246032953,0.020240332931280,0.001065280754119,-1.652024269104004,0.521943926811218,-9.825953483581542,27.71
0,345,-0.006391684990376,0.021305613219738,0.001065280754119,-1.647235870361328,0.493213087320328,-9.888203620910644,27.69
0,346,-0.006391684990376,0.021305613219738,0.002130561508238,-1.608928084373474,0.512367010116577,-9.835530281066894,27.70
0,347,-0.005326403304935,0.019175054505467,0.002130561508238,-1.604139685630798,0.550674796104431,-9.835530281066894,27.68
0,348,-0.007456964813173,0.022370895370841,0.002130561508238,-1.632870435714722,0.493213087320328,-9.864261627197265,27.72
0,349,-0.007456964813173,0.022370895370841,0.002130561508238,-1.632870435714722,0.493213087320328,-9.864261627197265,27.72
0,350,-0.007456964813173,0.020240332931280,0.002130561508238,-1.652024269104004,0.507578492164612,-9.902568817138671,27.71
0,351,-0.004261123016477,0.019175054505467,0.002130561508238,-1.628082036972046,0.517155468463898,-9.897780418395996,27.72
0,352,-0.005326403304935,0.019175054505467,0.002130561508238,-1.604139685630798,0.536309361457825,-9.816376686096191,27.72
0,353,-0.006391684990376,0.020240332931280,0.002130561508238,-1.656812906265259,0.526732385158539,-9.888203620910644,27.71
0,354,-0.005326403304935,0.020240332931280,0.001065280754119,-1.608928084373474,0.517155468463898,-9.802011489868164,27.71
0,355,-0.006391684990376,0.021305613219738,0.003195842495188,-1.642447471618652,0.541097819805145,-9.869050025939941,27.70
0,356,-0.006391684990376,0.021305613219738,0.003195842495188,-1.642447471618652,0.541097819805145,-9.869050025939941,27.70
0,357,-0.006391684990376,0.021305613219738,0.002130561508238,-1.637658953666687,0.526732385158539,-9.859473228454589,27.72
0,358,-0.007456964813173,0.021305613219738,0.000000000000000,-1.642447471618652,0.536309361457825,-9.864261627197265,27.71
0,359,-0.005326403304935,0.020240332931280,0.003195842495188,-1.628082036972046,0.531520903110504,-9.892992019653320,27.70
0,360,-0.005326403304935,0.021305613219738,0.003195842495188,-1.594562530517578,0.536309361457825,-9.883415222167968,27.71
0,361,-0.005326403304935,0.020240332931280,0.004261123016477,-1.647235870361328,0.517155468463898,-9.873838424682617,27.71
0,362,-0.005326403304935,0.020240332931280,0.002130561508238,-1.618505001068115,0.541097819805145,-9.907357215881347,27.72
0,363,-0.007456964813173,0.020240332931280,0.002130561508238,-1.661601424217224,0.517155468463898,-9.888203620910644,27.71
0,364,-0.004261123016477,0.020240332931280,0.003195842495188,-1.652024269104004,0.555463254451752,-9.806799888610839,27.72
0,365,-0.006391684990376,0.021305613219738,0.002130561508238,-1.604139685630798,0.517155468463898,-9.864261627197265,27.71
0,366,-0.006391684990376,0.021305613219738,0.002130561508238,-1.570620298385620,0.536309361457825,-9.825953483581542,27.71
0,367,-0.006391684990376,0.020240332931280,0.002130561508238,-1.671178221702576,0.512367010116577,-9.816376686096191,27.72
0,368,-0.007456964813173,0.022370895370841,0.002130561508238,-1.580197215080261,0.541097819805145,-9.821165084838867,27.71
0,369,-0.007456964813173,0.022370895370841,0.002130561508238,-1.580197215080261,0.541097819805145,-9.821165084838867,27.71
0,370,-0.006391684990376,0.020240332931280,0.002130561508238,-1.656812906265259,0.507578492164612,-9.830741882324218,27.70
0,371,-0.005326403304935,0.021305613219738,0.002130561508238,-1.647235870361328,0.526732385158539,-9.787646293640136,27.71
0,372,-0.006391684990376,0.020240332931280,0.003195842495188,-1.613716483116150,0.574617147445679,-9.859473228454589,27.69
0,373,-0.006391684990376,0.021305613219738,0.001065280754119,-1.666389822959900,0.488424599170685,-9.825953483581542,27.71
0,374,-0.006391684990376,0.021305613219738,0.002130561508238,-1.599351167678833,0.493213087320328,-9.897780418395996,27.72
0,375,-0.006391684990376,0.020240332931280,0.004261123016477,-1.666389822959900,0.507578492164612,-9.840318679809570,27.69
0,376,-0.006391684990376,0.020240332931280,0.004261123016477,-1.666389822959900,0.507578492164612,-9.840318679809570,27.69
0,377,-0.006391684990376,0.019175054505467,0.003195842495188,-1.652024269104004,0.507578492164612,-9.845107078552246,27.74
0,378,-0.006391684990376,0.021305613219738,0.002130561508238,-1.637658953666687,0.531520903110504,-9.840318679809570,27.73
0,379,-0.006391684990376,0.020240332931280,0.002130561508238,-1.642447471618652,0.517155468463898,-9.845107078552246,27.72
0,380,-0.007456964813173,0.021305613219738,0.003195842495188,-1.589774131774902,0.517155468463898,-9.883415222167968,27.70
0,381,-0.006391684990376,0.021305613219738,0.002130561508238,-1.647235870361328,0.541097819805145,-9.869050025939941,27.71
0,382,-0.005326403304935,0.021305613219738,0.001065280754119,-1.632870435714722,0.502790033817291,-9.892992019653320,27.73
0,383,-0.006391684990376,0.021305613219738,0.000000000000000,-1.613716483116150,0.574617147445679,-9.811588287353515,27.73
0,384,-0.004261123016477,0.021305613219738,0.002130561508238,-1.647235870361328,0.541097819805145,-9.854684829711914,27.71
0,385,-0.006391684990376,0.021305613219738,0.001065280754119,-1.608928084373474,0.517155468463898,-9.869050025939941,27.74
0,386,-0.006391684990376,0.021305613219738,0.002130561508238,-1.623293638229370,0.502790033817291,-9.821165084838867,27.71
0,387,-0.006391684990376,0.020240332931280,0.002130561508238,-1.623293638229370,0.507578492164612,-9.849896430969238,27.72
0,388,-0.006391684990376,0.021305613219738,0.001065280754119,-1.647235870361328,0.493213087320328,-9.854684829711914,27.71
0,389,-0.006391684990376,0.021305613219738,0.001065280754119,-1.647235870361328,0.493213087320328,-9.854684829711914,27.71
0,390,-0.006391684990376,0.020240332931280,0.002130561508238,-1.637658953666687,0.474059164524078,-9.926511764526367,27.72
0,391,-0.007456964813173,0.021305613219738,0.003195842495188,-1.613716483116150,0.545886337757111,-9.840318679809570,27.72
0,392,-0.005326403304935,0.019175054505467,0.001065280754119,-1.604139685630798,0.493213087320328,-9.849896430969238,27.71
0,393,-0.007456964813173,0.021305613219738,0.002130561508238,-1.604139685630798,0.545886337757111,-9.869050025939941,27.72
0,394,-0.006391684990376,0.020240332931280,0.002130561508238,-1.637658953666687,0.536309361457825,-9.888203620910644,27.73
0,395,-0.006391684990376,0.021305613219738,0.001065280754119,-1.584985733032227,0.526732385158539,-9.859473228454589,27.72
0,396,-0.006391684990376,0.021305613219738,0.001065280754119,-1.584985733032227,0.526732385158539,-9.859473228454589,27.72
0,397,-0.007456964813173,0.021305613219738,0.002130561508238,-1.618505001068115,0.526732385158539,-9.811588287353515,27.74
0,398,-0.007456964813173,0.020240332931280,0.001065280754119,-1.656812906265259,0.541097819805145,-9.897780418395996,27.72
0,399,-0.006391684990376,0.021305613219738,0.001065280754119,-1.632870435714722,0.498001545667648,-9.864261627197265,27.73
0,400,-0.007456964813173,0.020240332931280,0.001065280754119,-1.680755257606506,0.502790033817291,-9.883415222167968,27.72
0,401,-0.005326403304935,0.020240332931280,0.003195842495188,-1.666389822959900,0.536309361457825,-9.864261627197265,27.73
0,402,-0.006391684990376,0.020240332931280,0.001065280754119,-1.666389822959900,0.536309361457825,-9.849896430969238,27.72
0,403,-0.006391684990376,0.020240332931280,0.001065280754119,-1.666389822959900,0.536309361457825,-9.849896430969238,27.72
0,404,-0.007456964813173,0.021305613219738,0.003195842495188,-1.604139685630798,0.493213087320328,-9.859473228454589,27.73
0,405,-0.005326403304935,0.020240332931280,0.003195842495188,-1.661601424217224,0.536309361457825,-9.888203620910644,27.72
0,406,-0.006391684990376,0.021305613219738,0.003195842495188,-1.589774131774902,0.521943926811218,-9.816376686096191,27.70
0,407,-0.006391684990376,0.019175054505467,0.003195842495188,-1.699909210205078,0.550674796104431,-9.878626823425292,27.73
0,408,-0.005326403304935,0.022370895370841,0.002130561508238,-1.637658953666687,0.531520903110504,-9.907357215881347,27.70
0,409,-0.005326403304935,0.022370895370841,0.002130561508238,-1.637658953666687,0.531520903110504,-9.907357215881347,27.70
0,410,-0.005326403304935,0.021305613219738,0.002130561508238,-1.695120692253113,0.531520903110504,-9.854684829711914,27.71
0,411,-0.006391684990376,0.020240332931280,0.001065280754119,-1.656812906265259,0.555463254451752,-9.840318679809570,27.72
0,412,-0.007456964813173,0.021305613219738,0.002130561508238,-1.613716483116150,0.550674796104431,-9.835530281066894,27.73
0,413,-0.006391684990376,0.020240332931280,0.003195842495188,-1.647235870361328,0.521943926811218,-9.878626823425292,27.71
0,414,-0.006391684990376,0.020240332931280,0.002130561508238,-1.604139685630798,0.531520903110504,-9.825953483581542,27.73
0,415,-0.006391684990376,0.021305613219738,0.003195842495188,-1.623293638229370,0.555463254451752,-9.864261627197265,27.73
0,416,-0.006391684990376,0.021305613219738,0.003195842495188,-1.623293638229370,0.555463254451752,-9.864261627197265,27.73
0,417,-0.007456964813173,0.022370895370841,0.002130561508238,-1.632870435714722,0.526732385158539,-9.873838424682617,27.71
0,418,-0.005326403304935,0.019175054505467,0.001065280754119,-1.652024269104004,0.502790033817291,-9.907357215881347,27.72
0,419,-0.006391684990376,0.020240332931280,0.003195842495188,-1.608928084373474,0.531520903110504,-9.888203620910644,27.72
0,420,-0.007456964813173,0.020240332931280,0.002130561508238,-1.580197215080261,0.541097819805145,-9.921723365783691,27.73
0,421,-0.006391684990376,0.020240332931280,0.003195842495188,-1.637658953666687,0.498001545667648,-9.883415222167968,27.73
0,422,-0.007456964813173,0.022370895370841,0.002130561508238,-1.637658953666687,0.536309361457825,-9.878626823425292,27.73
0,423,-0.007456964813173,0.022370895370841,0.002130561508238,-1.637658953666687,0.536309361457825,-9.878626823425292,27.73
0,424,-0.006391684990376,0.020240332931280,0.002130561508238,-1.666389822959900,0.536309361457825,-9.907357215881347,27.72
0,425,-0.006391684990376,0.020240332931280,0.002130561508238,-1.632870435714722,0.512367010116577,-9.888203620910644,27.69
0,426,-0.006391684990376,0.020240332931280,0.003195842495188,-1.618505001068115,0.521943926811218,-9.816376686096191,27.74
0,427,-0.005326403304935,0.020240332931280,0.003195842495188,-1.647235870361328,0.579405665397644,-9.849896430969238,27.73
0,428,-0.004261123016477,0.021305613219738,0.001065280754119,-1.613716483116150,0.507578492164612,-9.878626823425292,27.73
0,429,-0.004261123016477,0.021305613219738,0.001065280754119,-1.613716483116150,0.507578492164612,-9.878626823425292,27.73
0,430,-0.006391684990376,0.020240332931280,0.002130561508238,-1.666389822959900,0.512367010116577,-9.840318679809570,27.72
0,431,-0.005326403304935,0.021305613219738,0.003195842495188,-1.594562530517578,0.560251772403717,-9.835530281066894,27.74
0,432,-0.006391684990376,0.020240332931280,0.003195842495188,-1.661601424217224,0.531520903110504,-9.873838424682617,27.72
0,433,-0.007456964813173,0.021305613219738,0.001065280754119,-1.637658953666687,0.526732385158539,-9.902568817138671,27.75
0,434,-0.006391684990376,0.020240332931280,0.002130561508238,-1.671178221702576,0.464482218027115,-9.859473228454589,27.73
0,435,-0.006391684990376,0.021305613219738,0.004261123016477,-1.604139685630798,0.555463254451752,-9.840318679809570,27.72
0,436,-0.006391684990376,0.021305613219738,0.004261123016477,-1.604139685630798,0.555463254451752,-9.840318679809570,27.72
0,437,-0.007456964813173,0.021305613219738,0.001065280754119,-1.632870435714722,0.574617147445679,-9.797223091125488,27.74
0,438,-0.005326403304935,0.020240332931280,0.002130561508238,-1.661601424217224,0.541097819805145,-9.859473228454589,27.74
0,439,-0.006391684990376,0.020240332931280,0.002130561508238,-1.661601424217224,0.536309361457825,-9.840318679809570,27.73
0,440,-0.005326403304935,0.021305613219738,0.003195842495188,-1.608928084373474,0.560251772403717,-9.797223091125488,27.71
0,441,-0.005326403304935,0.021305613219738,0.001065280754119,-1.594562530517578,0.483636111021042,-9.897780418395996,27.73
0,442,-0.007456964813173,0.020240332931280,0.002130561508238,-1.618505001068115,0.536309361457825,-9.873838424682617,27.72
0,443,-0.007456964813173,0.020240332931280,0.002130561508238,-1.618505001068115,0.536309361457825,-9.873838424682617,27.72
0,444,-0.005326403304935,0.020240332931280,0.004261123016477,-1.675966739654541,0.560251772403717,-9.873838424682617,27.75
0,445,-0.006391684990376,0.022370895370841,0.003195842495188,-1.599351167678833,0.521943926811218,-9.883415222167968,27.73
0,446,-0.006391684990376,0.019175054505467,0.002130561508238,-1.666389822959900,0.541097819805145,-9.849896430969238,27.74
0,447,-0.005326403304935,0.021305613219738,0.003195842495188,-1.618505001068115,0.531520903110504,-9.864261627197265,27.73
0,448,-0.006391684990376,0.020240332931280,0.001065280754119,-1.575408697128296,0.512367010116577,-9.883415222167968,27.73
0,449,-0.006391684990376,0.020240332931280,0.001065280754119,-1.575408697128296,0.512367010116577,-9.883415222167968,27.73
0,450,-0.007456964813173,0.020240332931280,0.002130561508238,-1.642447471618652,0.536309361457825,-9.907357215881347,27.72
0,451,-0.005326403304935,0.021305613219738,0.003195842495188,-1.589774131774902,0.483636111021042,-9.869050025939941,27.74
0,452,-0.006391684990376,0.020240332931280,0.001065280754119,-1.709486007690430,0.565040230751038,-9.806799888610839,27.74
0,453,-0.005326403304935,0.021305613219738,0.002130561508238,-1.628082036972046,0.478847652673721,-9.869050025939941,27.73
0,454,-0.005326403304935,0.020240332931280,0.002130561508238,-1.608928084373474,0.531520903110504,-9.878626823425292,27.73
0,455,-0.005326403304935,0.018109772354364,0.003195842495188,-1.690332174301147,0.531520903110504,-9.816376686096191,27.72
0,456,-0.005326403304935,0.018109772354364,0.003195842495188,-1.690332174301147,0.531520903110504,-9.816376686096191,27.72
0,457,-0.004261123016477,0.020240332931280,0.003195842495188,-1.608928084373474,0.550674796104431,-9.873838424682617,27.75
0,458,-0.006391684990376,0.021305613219738,0.004261123016477,-1.599351167678833,0.560251772403717,-9.845107078552246,27.74
0,459,-0.006391684990376,0.019175054505467,0.003195842495188,-1.632870435714722,0.545886337757111,-9.835530281066894,27.74
0,460,-0.006391684990376,0.021305613219738,0.003195842495188,-1.604139685630798,0.512367010116577,-9.821165084838867,27.73
0,461,-0.006391684990376,0.018109772354364,0.002130561508238,-1.628082036972046,0.478847652673721,-9.830741882324218,27.75
0,462,-0.006391684990376,0.022370895370841,0.002130561508238,-1.608928084373474,0.517155468463898,-9.869050025939941,27.72
0,463,-0.006391684990376,0.022370895370841,0.002130561508238,-1.608928084373474,0.517155468463898,-9.869050025939941,27.72
0,464,-0.005326403304935,0.019175054505467,0.003195842495188,-1.608928084373474,0.531520903110504,-9.825953483581542,27.72
0,465,-0.006391684990376,0.021305613219738,0.002130561508238,-1.642447471618652,0.521943926811218,-9.864261627197265,27.74
0,466,-0.006391684990376,0.019175054505467,0.003195842495188,-1.604139685630798,0.526732385158539,-9.854684829711914,27.75
0,467,-0.007456964813173,0.020240332931280,0.004261123016477,-1.647235870361328,0.521943926811218,-9.854684829711914,27.76
0,468,-0.005326403304935,0.021305613219738,0.002130561508238,-1.599351167678833,0.502790033817291,-9.835530281066894,27.75
0,469,-0.005326403304935,0.021305613219738,0.002130561508238,-1.599351167678833,0.502790033817291,-9.835530281066894,27.75
0,470,-0.005326403304935,0.019175054505467,0.002130561508238,-1.675966739654541,0.521943926811218,-9.921723365783691,27.73
0,471,-0.006391684990376,0.021305613219738,0.002130561508238,-1.618505001068115,0.531520903110504,-9.873838424682617,27.73
0,472,-0.006391684990376,0.020240332931280,0.003195842495188,-1.656812906265259,0.550674796104431,-9.873838424682617,27.72
0,473,-0.005326403304935,0.022370895370841,0.002130561508238,-1.618505001068115,0.521943926811218,-9.912145614624023,27.73
0,474,-0.006391684990376,0.021305613219738,0.003195842495188,-1.623293638229370,0.488424599170685,-9.835530281066894,27.73
0,475,-0.006391684990376,0.021305613219738,0.001065280754119,-1.671178221702576,0.521943926811218,-9.849896430969238,27.71
0,476,-0.006391684990376,0.021305613219738,0.001065280754119,-1.671178221702576,0.521943926811218,-9.849896430969238,27.71
0,477,-0.005326403304935,0.022370895370841,0.000000000000000,-1.580197215080261,0.488424599170685,-9.811588287353515,27.74
0,478,-0.007456964813173,0.020240332931280,0.002130561508238,-1.690332174301147,0.569828689098358,-9.854684829711914,27.73
0,479,-0.006391684990376,0.020240332931280,0.001065280754119,-1.652024269104004,0.507578492164612,-9.763703346252441,27.76
0,480,-0.006391684990376,0.021305613219738,0.002130561508238,-1.628082036972046,0.526732385158539,-9.825953483581542,27.75
0,481,-0.005326403304935,0.020240332931280,0.001065280754119,-1.647235870361328,0.521943926811218,-9.835530281066894,27.74
0,482,-0.006391684990376,0.022370895370841,0.001065280754119,-1.647235870361328,0.560251772403717,-9.835530281066894,27.75
0,483,-0.006391684990376,0.022370895370841,0.001065280754119,-1.647235870361328,0.560251772403717,-9.835530281066894,27.75
0,484,-0.005326403304935,0.020240332931280,0.002130561508238,-1.637658953666687,0.536309361457825,-9.883415222167968,27.75
0,485,-0.006391684990376,0.020240332931280,0.000000000000000,-1.632870435714722,0.565040230751038,-9.816376686096191,27.76
0,486,-0.007456964813173,0.020240332931280,0.002130561508238,-1.589774131774902,0.545886337757111,-9.835530281066894,27.75
0,487,-0.007456964813173,0.021305613219738,0.002130561508238,-1.637658953666687,0.517155468463898,-9.782856941223144,27.75
0,488,-0.006391684990376,0.022370895370841,0.002130561508238,-1.613716483116150,0.512367010116577,-9.825953483581542,27.74
0,489,-0.006391684990376,0.021305613219738,0.003195842495188,-1.604139685630798,0.521943926811218,-9.821165084838867,27.74
0,490,-0.006391684990376,0.021305613219738,0.002130561508238,-1.671178221702576,0.550674796104431,-9.830741882324218,27.75
0,491,-0.007456964813173,0.020240332931280,0.002130561508238,-1.608928084373474,0.512367010116577,-9.912145614624023,27.74
0,492,-0.006391684990376,0.021305613219738,0.002130561508238,-1.642447471618652,0.502790033817291,-9.811588287353515,27.75
0,493,-0.007456964813173,0.022370895370841,0.001065280754119,-1.594562530517578,0.512367010116577,-9.864261627197265,27.74
0,494,-0.006391684990376,0.021305613219738,0.001065280754119,-1.661601424217224,0.512367010116577,-9.869050025939941,27.75
0,495,-0.006391684990376,0.019175054505467,0.003195842495188,-1.584985733032227,0.498001545667648,-9.936088562011718,27.74
0,496,-0.006391684990376,0.019175054505467,0.003195842495188,-1.584985733032227,0.498001545667648,-9.936088562011718,27.74
0,497,-0.005326403304935,0.021305613219738,0.001065280754119,-1.632870435714722,0.512367010116577,-9.869050025939941,27.73
0,498,-0.005326403304935,0.021305613219738,0.003195842495188,-1.647235870361328,0.531520903110504,-9.806799888610839,27.75
0,499,-0.006391684990376,0.021305613219738,0.003195842495188,-1.599351167678833,0.502790033817291,-9.840318679809570,27.77
0,500,-0.005326403304935,0.018109772354364,0.001065280754119,-1.656812906265259,0.550674796104431,-9.802011489868164,27.74
0,501,-0.006391684990376,0.021305613219738,0.003195842495188,-1.599351167678833,0.536309361457825,-9.845107078552246,27.74
0,502,-0.006391684990376,0.019175054505467,0.002130561508238,-1.675966739654541,0.498001545667648,-9.892992019653320,27.74
0,503,-0.006391684990376,0.019175054505467,0.002130561508238,-1.675966739654541,0.498001545667648,-9.892992019653320,27.74
0,504,-0.006391684990376,0.020240332931280,0.002130561508238,-1.618505001068115,0.521943926811218,-9.849896430969238,27.75
0,505,-0.006391684990376,0.020240332931280,0.001065280754119,-1.632870435714722,0.478847652673721,-9.821165084838867,27.72
0,506,-0.006391684990376,0.020240332931280,0.004261123016477,-1.604139685630798,0.550674796104431,-9.873838424682617,27.73
0,507,-0.004261123016477,0.019175054505467,0.003195842495188,-1.714274525642395,0.526732385158539,-9.897780418395996,27.74
0,508,-0.006391684990376,0.021305613219738,0.000000000000000,-1.594562530517578,0.536309361457825,-9.797223091125488,27.75
0,509,-0.005326403304935,0.019175054505467,0.003195842495188,-1.647235870361328,0.507578492164612,-9.845107078552246,27.76
0,510,-0.005326403304935,0.022370895370841,0.002130561508238,-1.584985733032227,0.526732385158539,-9.811588287353515,27.75
0,511,-0.005326403304935,0.020240332931280,0.002130561508238,-1.661601424217224,0.531520903110504,-9.878626823425292,27.75
0,512,-0.006391684990376,0.021305613219738,0.002130561508238,-1.623293638229370,0.545886337757111,-9.845107078552246,27.74
0,513,-0.006391684990376,0.020240332931280,0.002130561508238,-1.652024269104004,0.536309361457825,-9.907357215881347,27.73
0,514,-0.008522246032953,0.022370895370841,0.005326403304935,-1.584985733032227,0.550674796104431,-9.821165084838867,27.75
0,515,-0.006391684990376,0.019175054505467,0.001065280754119,-1.704697608947754,0.531520903110504,-9.854684829711914,27.76
0,516,-0.006391684990376,0.019175054505467,0.001065280754119,-1.704697608947754,0.531520903110504,-9.854684829711914,27.76
0,517,-0.006391684990376,0.019175054505467,0.002130561508238,-1.652024269104004,0.555463254451752,-9.873838424682617,27.74
0,518,-0.006391684990376,0.021305613219738,0.002130561508238,-1.632870435714722,0.474059164524078,-9.835530281066894,27.74
0,519,-0.006391684990376,0.019175054505467,0.003195842495188,-1.628082036972046,0.550674796104431,-9.859473228454589,27.73
0,520,-0.005326403304935,0.020240332931280,0.002130561508238,-1.628082036972046,0.531520903110504,-9.869050025939941,27.73
0,521,-0.007456964813173,0.020240332931280,0.002130561508238,-1.628082036972046,0.569828689098358,-9.811588287353515,27.75
0,522,-0.006391684990376,0.020240332931280,0.002130561508238,-1.647235870361328,0.536309361457825,-9.845107078552246,27.75
0,523,-0.006391684990376,0.020240332931280,0.002130561508238,-1.647235870361328,0.536309361457825,-9.845107078552246,27.75
0,524,-0.006391684990376,0.020240332931280,0.003195842495188,-1.666389822959900,0.517155468463898,-9.902568817138671,27.75
0,525,-0.005326403304935,0.022370895370841,0.002130561508238,-1.632870435714722,0.512367010116577,-9.825953483581542,27.74
0,526,-0.005326403304935,0.020240332931280,0.003195842495188,-1.618505001068115,0.555463254451752,-9.864261627197265,27.75
0,527,-0.005326403304935,0.019175054505467,0.003195842495188,-1.666389822959900,0.488424599170685,-9.768491744995117,27.77
0,528,-0.006391684990376,0.020240332931280,0.002130561508238,-1.623293638229370,0.488424599170685,-9.806799888610839,27.76
0,529,-0.006391684990376,0.021305613219738,0.003195842495188,-1.599351167678833,0.574617147445679,-9.845107078552246,27.75
0,530,-0.006391684990376,0.020240332931280,0.002130561508238,-1.675966739654541,0.498001545667648,-9.864261627197265,27.77
0,531,-0.005326403304935,0.022370895370841,0.002130561508238,-1.589774131774902,0.526732385158539,-9.849896430969238,27.76
0,532,-0.006391684990376,0.021305613219738,0.002130561508238,-1.632870435714722,0.541097819805145,-9.916934013366699,27.75
0,533,-0.006391684990376,0.019175054505467,0.002130561508238,-1.671178221702576,0.521943926811218,-9.816376686096191,27.75
0,534,-0.006391684990376,0.020240332931280,0.003195842495188,-1.604139685630798,0.531520903110504,-9.883415222167968,27.76
0,535,-0.006391684990376,0.020240332931280,0.002130561508238,-1.656812906265259,0.526732385158539,-9.897780418395996,27.74
0,536,-0.006391684990376,0.020240332931280,0.002130561508238,-1.656812906265259,0.526732385158539,-9.897780418395996,27.74
0,537,-0.006391684990376,0.020240332931280,0.002130561508238,-1.584985733032227,0.569828689098358,-9.825953483581542,27.75
0,538,-0.005326403304935,0.020240332931280,0.001065280754119,-1.680755257606506,0.512367010116577,-9.916934013366699,27.75
0,539,-0.006391684990376,0.021305613219738,0.003195842495188,-1.632870435714722,0.560251772403717,-9.840318679809570,27.77
0,540,-0.005326403304935,0.021305613219738,0.002130561508238,-1.642447471618652,0.560251772403717,-9.864261627197265,27.74
0,541,-0.005326403304935,0.019175054505467,0.002130561508238,-1.642447471618652,0.555463254451752,-9.902568817138671,27.76
0,542,-0.005326403304935,0.020240332931280,0.001065280754119,-1.632870435714722,0.545886337757111,-9.869050025939941,27.75
0,543,-0.005326403304935,0.020240332931280,0.001065280754119,-1.632870435714722,0.545886337757111,-9.869050025939941,27.75
0,544,-0.006391684990376,0.020240332931280,0.002130561508238,-1.656812906265259,0.565040230751038,-9.821165084838867,27.73
0,545,-0.006391684990376,0.021305613219738,0.003195842495188,-1.642447471618652,0.507578492164612,-9.883415222167968,27.76
0,546,-0.005326403304935,0.021305613219738,0.002130561508238,-1.695120692253113,0.517155468463898,-9.840318679809570,27.74
0,547,-0.006391684990376,0.020240332931280,0.002130561508238,-1.594562530517578,0.555463254451752,-9.840318679809570,27.76
0,548,-0.005326403304935,0.020240332931280,0.002130561508238,-1.647235870361328,0.502790033817291,-9.835530281066894,27.75
0,549,-0.006391684990376,0.020240332931280,0.003195842495188,-1.604139685630798,0.507578492164612,-9.845107078552246,27.77
0,550,-0.006391684990376,0.020240332931280,0.003195842495188,-1.604139685630798,0.507578492164612,-9.845107078552246,27.77
0,551,-0.006391684990376,0.022370895370841,0.004261123016477,-1.580197215080261,0.541097819805145,-9.878626823425292,27.75
0,552,-0.006391684990376,0.021305613219738,0.003195842495188,-1.656812906265259,0.507578492164612,-9.878626823425292,27.75
0,553,-0.006391684990376,0.021305613219738,0.002130561508238,-1.618505001068115,0.483636111021042,-9.883415222167968,27.76
0,554,-0.006391684990376,0.020240332931280,0.001065280754119,-1.570620298385620,0.560251772403717,-9.849896430969238,27.76
0,555,-0.006391684990376,0.020240332931280,0.003195842495188,-1.618505001068115,0.512367010116577,-9.854684829711914,27.75
0,556,-0.006391684990376,0.020240332931280,0.003195842495188,-1.618505001068115,0.512367010116577,-9.854684829711914,27.75
0,557,-0.006391684990376,0.020240332931280,0.002130561508238,-1.608928084373474,0.521943926811218,-9.840318679809570,27.75
0,558,-0.005326403304935,0.021305613219738,0.003195842495188,-1.671178221702576,0.483636111021042,-9.830741882324218,27.76
0,559,-0.006391684990376,0.021305613219738,0.003195842495188,-1.628082036972046,0.483636111021042,-9.763703346252441,27.76
0,560,-0.005326403304935,0.020240332931280,0.003195842495188,-1.575408697128296,0.536309361457825,-9.873838424682617,27.76
0,561,-0.006391684990376,0.019175054505467,0.003195842495188,-1.661601424217224,0.531520903110504,-9.888203620910644,27.78
0,562,-0.007456964813173,0.019175054505467,0.002130561508238,-1.604139685630798,0.526732385158539,-9.883415222167968,27.74
0,563,-0.007456964813173,0.019175054505467,0.002130561508238,-1.604139685630798,0.526732385158539,-9.883415222167968,27.74
0,564,-0.006391684990376,0.020240332931280,0.001065280754119,-1.675966739654541,0.517155468463898,-9.806799888610839,27.76
0,565,-0.006391684990376,0.021305613219738,0.002130561508238,-1.613716483116150,0.545886337757111,-9.825953483581542,27.76
0,566,-0.006391684990376,0.021305613219738,0.002130561508238,-1.666389822959900,0.545886337757111,-9.825953483581542,27.74
0,567,-0.007456964813173,0.021305613219738,0.002130561508238,-1.675966739654541,0.502790033817291,-9.821165084838867,27.76
0,568,-0.007456964813173,0.021305613219738,0.003195842495188,-1.623293638229370,0.507578492164612,-9.797223091125488,27.76
0,569,-0.006391684990376,0.018109772354364,0.001065280754119,-1.661601424217224,0.498001545667648,-9.825953483581542,27.75
0,570,-0.006391684990376,0.018109772354364,0.001065280754119,-1.661601424217224,0.498001545667648,-9.825953483581542,27.75
0,571,-0.005326403304935,0.019175054505467,0.001065280754119,-1.690332174301147,0.512367010116577,-9.854684829711914,27.77
0,572,-0.005326403304935,0.021305613219738,0.002130561508238,-1.628082036972046,0.541097819805145,-9.830741882324218,27.76
0,573,-0.007456964813173,0.020240332931280,0.002130561508238,-1.642447471618652,0.502790033817291,-9.854684829711914,27.76
0,574,-0.005326403304935,0.020240332931280,0.002130561508238,-1.623293638229370,0.541097819805145,-9.869050025939941,27.75
0,575,-0.006391684990376,0.021305613219738,0.003195842495188,-1.594562530517578,0.521943926811218,-9.830741882324218,27.78
0,576,-0.006391684990376,0.021305613219738,0.003195842495188,-1.594562530517578,0.521943926811218,-9.830741882324218,27.78
0,577,-0.007456964813173,0.021305613219738,0.003195842495188,-1.618505001068115,0.541097819805145,-9.811588287353515,27.76
0,578,-0.006391684990376,0.019175054505467,0.002130561508238,-1.584985733032227,0.502790033817291,-9.907357215881347,27.78
0,579,-0.007456964813173,0.022370895370841,0.001065280754119,-1.618505001068115,0.512367010116577,-9.835530281066894,27.75
0,580,-0.005326403304935,0.021305613219738,0.002130561508238,-1.608928084373474,0.507578492164612,-9.888203620910644,27.76
0,581,-0.006391684990376,0.020240332931280,0.003195842495188,-1.632870435714722,0.517155468463898,-9.830741882324218,27.76
0,582,-0.006391684990376,0.019175054505467,0.001065280754119,-1.647235870361328,0.512367010116577,-9.869050025939941,27.76
0,583,-0.006391684990376,0.019175054505467,0.001065280754119,-1.647235870361328,0.512367010116577,-9.869050025939941,27.76
0,584,-0.007456964813173,0.020240332931280,0.002130561508238,-1.661601424217224,0.507578492164612,-9.892992019653320,27.78
0,585,-0.006391684990376,0.021305613219738,0.001065280754119,-1.608928084373474,0.502790033817291,-9.845107078552246,27.78
0,586,-0.006391684990376,0.020240332931280,0.002130561508238,-1.652024269104004,0.517155468463898,-9.926511764526367,27.78
0,587,-0.005326403304935,0.021305613219738,0.000000000000000,-1.666389822959900,0.488424599170685,-9.883415222167968,27.77
0,588,-0.006391684990376,0.021305613219738,0.003195842495188,-1.561043381690979,0.531520903110504,-9.878626823425292,27.77
0,589,-0.005326403304935,0.020240332931280,0.003195842495188,-1.656812906265259,0.521943926811218,-9.845107078552246,27.76
0,590,-0.005326403304935,0.020240332931280,0.003195842495188,-1.656812906265259,0.521943926811218,-9.845107078552246,27.76
0,591,-0.006391684990376,0.020240332931280,0.002130561508238,-1.589774131774902,0.531520903110504,-9.912145614624023,27.77
0,592,-0.006391684990376,0.020240332931280,0.002130561508238,-1.647235870361328,0.521943926811218,-9.869050025939941,27.76
0,593,-0.006391684990376,0.021305613219738,0.002130561508238,-1.604139685630798,0.526732385158539,-9.825953483581542,27.76
0,594,-0.005326403304935,0.020240332931280,0.000000000000000,-1.671178221702576,0.512367010116577,-9.888203620910644,27.76
0,595,-0.006391684990376,0.021305613219738,0.002130561508238,-1.604139685630798,0.521943926811218,-9.849896430969238,27.77
0,596,-0.006391684990376,0.021305613219738,0.001065280754119,-1.623293638229370,0.507578492164612,-9.825953483581542,27.77
0,597,-0.006391684990376,0.020240332931280,0.003195842495188,-1.647235870361328,0.536309361457825,-9.878626823425292,27.78
0,598,-0.006391684990376,0.021305613219738,0.001065280754119,-1.637658953666687,0.517155468463898,-9.830741882324218,27.76
0,599,-0.006391684990376,0.021305613219738,0.001065280754119,-1.623293638229370,0.502790033817291,-9.892992019653320,27.77
0,600,-0.005326403304935,0.020240332931280,0.001065280754119,-1.637658953666687,0.536309361457825,-9.873838424682617,27.76
0,601,-0.006391684990376,0.022370895370841,0.002130561508238,-1.604139685630798,0.512367010116577,-9.888203620910644,27.76
0,602,-0.006391684990376,0.020240332931280,0.002130561508238,-1.652024269104004,0.536309361457825,-9.821165084838867,27.77
0,603,-0.006391684990376,0.020240332931280,0.002130561508238,-1.652024269104004,0.536309361457825,-9.821165084838867,27.77
0,604,-0.005326403304935,0.020240332931280,0.001065280754119,-1.628082036972046,0.521943926811218,-9.811588287353515,27.75
0,605,-0.006391684990376,0.022370895370841,0.002130561508238,-1.628082036972046,0.493213087320328,-9.845107078552246,27.76
0,606,-0.008522246032953,0.021305613219738,0.002130561508238,-1.618505001068115,0.521943926811218,-9.873838424682617,27.77
0,607,-0.006391684990376,0.020240332931280,0.001065280754119,-1.675966739654541,0.502790033817291,-9.892992019653320,27.76
0,608,-0.006391684990376,0.022370895370841,0.001065280754119,-1.613716483116150,0.531520903110504,-9.878626823425292,27.78
0,609,-0.006391684990376,0.020240332931280,0.003195842495188,-1.604139685630798,0.526732385158539,-9.835530281066894,27.78
0,610,-0.006391684990376,0.020240332931280,0.003195842495188,-1.604139685630798,0.526732385158539,-9.835530281066894,27.78
0,611,-0.006391684990376,0.022370895370841,0.002130561508238,-1.580197215080261,0.526732385158539,-9.835530281066894,27.77
0,612,-0.007456964813173,0.020240332931280,0.002130561508238,-1.613716483116150,0.517155468463898,-9.854684829711914,27.75
0,613,-0.006391684990376,0.022370895370841,0.002130561508238,-1.661601424217224,0.512367010116577,-9.859473228454589,27.75
0,614,-0.006391684990376,0.021305613219738,0.003195842495188,-1.608928084373474,0.536309361457825,-9.849896430969238,27.76
0,615,-0.005326403304935,0.020240332931280,0.003195842495188,-1.637658953666687,0.483636111021042,-9.845107078552246,27.79
0,616,-0.006391684990376,0.022370895370841,0.002130561508238,-1.632870435714722,0.521943926811218,-9.840318679809570,27.77
0,617,-0.005326403304935,0.020240332931280,0.002130561508238,-1.628082036972046,0.498001545667648,-9.840318679809570,27.77
0,618,-0.005326403304935,0.021305613219738,0.003195842495188,-1.647235870361328,0.493213087320328,-9.821165084838867,27.79
0,619,-0.006391684990376,0.021305613219738,0.002130561508238,-1.680755257606506,0.531520903110504,-9.845107078552246,27.78
0,620,-0.006391684990376,0.021305613219738,0.002130561508238,-1.656812906265259,0.545886337757111,-9.883415222167968,27.77
0,621,-0.006391684990376,0.019175054505467,0.001065280754119,-1.666389822959900,0.526732385158539,-9.821165084838867,27.78
0,622,-0.005326403304935,0.021305613219738,0.001065280754119,-1.613716483116150,0.507578492164612,-9.873838424682617,27.75
0,623,-0.005326403304935,0.021305613219738,0.001065280754119,-1.613716483116150,0.507578492164612,-9.873838424682617,27.75
0,624,-0.006391684990376,0.021305613219738,0.002130561508238,-1.589774131774902,0.493213087320328,-9.869050025939941,27.77
0,625,-0.005326403304935,0.020240332931280,0.001065280754119,-1.666389822959900,0.521943926811218,-9.859473228454589,27.78
0,626,-0.006391684990376,0.021305613219738,0.002130561508238,-1.666389822959900,0.517155468463898,-9.849896430969238,27.77
0,627,-0.006391684990376,0.020240332931280,0.003195842495188,-1.599351167678833,0.531520903110504,-9.864261627197265,27.76
0,628,-0.005326403304935,0.020240332931280,0.001065280754119,-1.690332174301147,0.474059164524078,-9.892992019653320,27.78
0,629,-0.007456964813173,0.022370895370841,0.003195842495188,-1.608928084373474,0.588982582092285,-9.830741882324218,27.78
0,630,-0.007456964813173,0.022370895370841,0.003195842495188,-1.608928084373474,0.588982582092285,-9.830741882324218,27.78
0,631,-0.006391684990376,0.022370895370841,0.002130561508238,-1.623293638229370,0.541097819805145,-9.840318679809570,27.77
0,632,-0.005326403304935,0.020240332931280,0.001065280754119,-1.632870435714722,0.512367010116577,-9.912145614624023,27.79
0,633,-0.006391684990376,0.021305613219738,0.003195842495188,-1.637658953666687,0.545886337757111,-9.854684829711914,27.77
0,634,-0.006391684990376,0.020240332931280,0.001065280754119,-1.642447471618652,0.498001545667648,-9.797223091125488,27.78
0,635,-0.006391684990376,0.021305613219738,0.002130561508238,-1.618505001068115,0.512367010116577,-9.916934013366699,27.78
0,636,-0.006391684990376,0.020240332931280,0.002130561508238,-1.671178221702576,0.555463254451752,-9.792434692382812,27.76
0,637,-0.005326403304935,0.021305613219738,0.002130561508238,-1.584985733032227,0.550674796104431,-9.825953483581542,27.78
0,638,-0.007456964813173,0.019175054505467,0.002130561508238,-1.675966739654541,0.565040230751038,-9.883415222167968,27.78
0,639,-0.007456964813173,0.020240332931280,0.000000000000000,-1.656812906265259,0.550674796104431,-9.869050025939941,27.77
0,640,-0.005326403304935,0.021305613219738,0.003195842495188,-1.580197215080261,0.541097819805145,-9.840318679809570,27.79
0,641,-0.005326403304935,0.018109772354364,0.001065280754119,-1.714274525642395,0.521943926811218,-9.869050025939941,27.78
0,642,-0.005326403304935,0.022370895370841,0.002130561508238,-1.584985733032227,0.521943926811218,-9.878626823425292,27.76
0,643,-0.005326403304935,0.022370895370841,0.002130561508238,-1.584985733032227,0.521943926811218,-9.878626823425292,27.76
0,644,-0.006391684990376,0.021305613219738,0.003195842495188,-1.671178221702576,0.507578492164612,-9.878626823425292,27.77
0,645,-0.004261123016477,0.020240332931280,0.001065280754119,-1.580197215080261,0.507578492164612,-9.840318679809570,27.77
0,646,-0.006391684990376,0.020240332931280,0.002130561508238,-1.642447471618652,0.517155468463898,-9.840318679809570,27.79
0,647,-0.006391684990376,0.021305613219738,0.003195842495188,-1.623293638229370,0.502790033817291,-9.840318679809570,27.78
0,648,-0.006391684990376,0.021305613219738,0.002130561508238,-1.570620298385620,0.517155468463898,-9.830741882324218,27.79
0,649,-0.006391684990376,0.021305613219738,0.002130561508238,-1.632870435714722,0.526732385158539,-9.849896430969238,27.78
0,650,-0.006391684990376,0.021305613219738,0.002130561508238,-1.632870435714722,0.526732385158539,-9.849896430969238,27.78
0,651,-0.006391684990376,0.019175054505467,0.002130561508238,-1.613716483116150,0.512367010116577,-9.892992019653320,27.77
0,652,-0.005326403304935,0.020240332931280,0.003195842495188,-1.699909210205078,0.517155468463898,-9.830741882324218,27.79
0,653,-0.005326403304935,0.019175054505467,0.002130561508238,-1.613716483116150,0.526732385158539,-9.835530281066894,27.76
0,654,-0.007456964813173,0.019175054505467,0.001065280754119,-1.618505001068115,0.469270706176758,-9.845107078552246,27.78
0,655,-0.006391684990376,0.022370895370841,0.002130561508238,-1.613716483116150,0.526732385158539,-9.878626823425292,27.78
0,656,-0.006391684990376,0.020240332931280,0.000000000000000,-1.637658953666687,0.507578492164612,-9.806799888610839,27.80
0,657,-0.006391684990376,0.020240332931280,0.000000000000000,-1.637658953666687,0.507578492164612,-9.806799888610839,27.80
0,658,-0.006391684990376,0.020240332931280,0.002130561508238,-1.652024269104004,0.502790033817291,-9.888203620910644,27.77
0,659,-0.005326403304935,0.022370895370841,0.002130561508238,-1.637658953666687,0.526732385158539,-9.797223091125488,27.77
0,660,-0.005326403304935,0.020240332931280,0.002130561508238,-1.623293638229370,0.512367010116577,-9.821165084838867,27.78
0,661,-0.006391684990376,0.021305613219738,0.002130561508238,-1.675966739654541,0.478847652673721,-9.859473228454589,27.78
0,662,-0.006391684990376,0.020240332931280,0.002130561508238,-1.637658953666687,0.493213087320328,-9.878626823425292,27.80
0,663,-0.005326403304935,0.021305613219738,0.001065280754119,-1.623293638229370,0.536309361457825,-9.845107078552246,27.77
0,664,-0.007456964813173,0.020240332931280,0.003195842495188,-1.642447471618652,0.531520903110504,-9.854684829711914,27.78
0,665,-0.006391684990376,0.021305613219738,0.003195842495188,-1.608928084373474,0.526732385158539,-9.878626823425292,27.80
0,666,-0.006391684990376,0.021305613219738,0.002130561508238,-1.604139685630798,0.545886337757111,-9.835530281066894,27.76
0,667,-0.006391684990376,0.021305613219738,0.002130561508238,-1.690332174301147,0.493213087320328,-9.840318679809570,27.78
0,668,-0.007456964813173,0.021305613219738,0.003195842495188,-1.570620298385620,0.550674796104431,-9.869050025939941,27.77
0,669,-0.006391684990376,0.019175054505467,0.002130561508238,-1.680755257606506,0.517155468463898,-9.840318679809570,27.78
0,670,-0.006391684990376,0.019175054505467,0.002130561508238,-1.680755257606506,0.517155468463898,-9.840318679809570,27.78
0,671,-0.006391684990376,0.019175054505467,0.000000000000000,-1.623293638229370,0.498001545667648,-9.821165084838867,27.81
0,672,-0.006391684990376,0.021305613219738,0.003195842495188,-1.613716483116150,0.545886337757111,-9.883415222167968,27.80
0,673,-0.006391684990376,0.020240332931280,0.001065280754119,-1.671178221702576,0.498001545667648,-9.802011489868164,27.80
0,674,-0.006391684990376,0.021305613219738,0.002130561508238,-1.599351167678833,0.526732385158539,-9.892992019653320,27.78
0,675,-0.006391684990376,0.019175054505467,0.002130561508238,-1.652024269104004,0.555463254451752,-9.825953483581542,27.79
0,676,-0.006391684990376,0.021305613219738,0.002130561508238,-1.623293638229370,0.541097819805145,-9.902568817138671,27.78
0,677,-0.006391684990376,0.021305613219738,0.002130561508238,-1.623293638229370,0.541097819805145,-9.902568817138671,27.78
0,678,-0.005326403304935,0.020240332931280,0.001065280754119,-1.675966739654541,0.521943926811218,-9.830741882324218,27.79
0,679,-0.007456964813173,0.021305613219738,0.002130561508238,-1.642447471618652,0.531520903110504,-9.859473228454589,27.77
0,680,-0.005326403304935,0.020240332931280,0.001065280754119,-1.652024269104004,0.521943926811218,-9.869050025939941,27.76
0,681,-0.006391684990376,0.020240332931280,0.002130561508238,-1.594562530517578,0.536309361457825,-9.864261627197265,27.79
0,682,-0.005326403304935,0.020240332931280,0.003195842495188,-1.637658953666687,0.498001545667648,-9.825953483581542,27.78
0,683,-0.006391684990376,0.021305613219738,0.002130561508238,-1.628082036972046,0.521943926811218,-9.907357215881347,27.79
0,684,-0.005326403304935,0.020240332931280,0.002130561508238,-1.628082036972046,0.512367010116577,-9.864261627197265,27.77
0,685,-0.006391684990376,0.021305613219738,0.003195842495188,-1.628082036972046,0.541097819805145,-9.864261627197265,27.79
0,686,-0.006391684990376,0.019175054505467,0.002130561508238,-1.652024269104004,0.541097819805145,-9.830741882324218,27.77
0,687,-0.006391684990376,0.022370895370841,0.001065280754119,-1.647235870361328,0.517155468463898,-9.878626823425292,27.79
0,688,-0.006391684990376,0.020240332931280,0.001065280754119,-1.637658953666687,0.541097819805145,-9.840318679809570,27.78
0,689,-0.005326403304935,0.021305613219738,0.003195842495188,-1.652024269104004,0.493213087320328,-9.888203620910644,27.79
0,690,-0.005326403304935,0.021305613219738,0.003195842495188,-1.652024269104004,0.493213087320328,-9.888203620910644,27.79
0,691,-0.004261123016477,0.021305613219738,0.002130561508238,-1.608928084373474,0.498001545667648,-9.811588287353515,27.82
0,692,-0.006391684990376,0.021305613219738,0.003195842495188,-1.632870435714722,0.521943926811218,-9.854684829711914,27.78
0,693,-0.005326403304935,0.021305613219738,0.003195842495188,-1.647235870361328,0.545886337757111,-9.825953483581542,27.82
0,694,-0.006391684990376,0.020240332931280,0.003195842495188,-1.613716483116150,0.517155468463898,-9.821165084838867,27.78
0,695,-0.006391684990376,0.021305613219738,0.002130561508238,-1.613716483116150,0.521943926811218,-9.907357215881347,27.78
0,696,-0.006391684990376,0.020240332931280,0.001065280754119,-1.652024269104004,0.521943926811218,-9.864261627197265,27.81
0,697,-0.006391684990376,0.020240332931280,0.001065280754119,-1.652024269104004,0.521943926811218,-9.864261627197265,27.81
0,698,-0.006391684990376,0.022370895370841,0.002130561508238,-1.652024269104004,0.541097819805145,-9.888203620910644,27.79
0,699,-0.005326403304935,0.021305613219738,0.001065280754119,-1.623293638229370,0.507578492164612,-9.888203620910644,27.78
0,700,-0.005326403304935,0.022370895370841,0.002130561508238,-1.570620298385620,0.579405665397644,-9.854684829711914,27.80
0,701,-0.006391684990376,0.021305613219738,0.003195842495188,-1.690332174301147,0.526732385158539,-9.940876960754394,27.78
0,702,-0.005326403304935,0.021305613219738,0.000000000000000,-1.613716483116150,0.512367010116577,-9.845107078552246,27.79
0,703,-0.006391684990376,0.020240332931280,0.002130561508238,-1.666389822959900,0.512367010116577,-9.892992019653320,27.80
0,704,-0.006391684990376,0.019175054505467,0.002130561508238,-1.656812906265259,0.541097819805145,-9.902568817138671,27.78
0,705,-0.005326403304935,0.021305613219738,0.002130561508238,-1.565831899642944,0.555463254451752,-9.864261627197265,27.79
0,706,-0.005326403304935,0.021305613219738,0.003195842495188,-1.632870435714722,0.502790033817291,-9.864261627197265,27.78
0,707,-0.004261123016477,0.020240332931280,0.002130561508238,-1.652024269104004,0.454905271530151,-9.892992019653320,27.79
0,708,-0.006391684990376,0.020240332931280,0.003195842495188,-1.584985733032227,0.507578492164612,-9.821165084838867,27.80
0,709,-0.006391684990376,0.021305613219738,0.003195842495188,-1.652024269104004,0.483636111021042,-9.845107078552246,27.78
0,710,-0.006391684990376,0.021305613219738,0.003195842495188,-1.652024269104004,0.483636111021042,-9.845107078552246,27.78
0,711,-0.006391684990376,0.021305613219738,0.002130561508238,-1.618505001068115,0.545886337757111,-9.782856941223144,27.79
0,712,-0.005326403304935,0.019175054505467,0.000000000000000,-1.647235870361328,0.521943926811218,-9.830741882324218,27.79
0,713,-0.006391684990376,0.022370895370841,0.002130561508238,-1.637658953666687,0.526732385158539,-9.849896430969238,27.78
0,714,-0.006391684990376,0.021305613219738,0.002130561508238,-1.613716483116150,0.521943926811218,-9.859473228454589,27.79
0,715,-0.005326403304935,0.019175054505467,0.000000000000000,-1.589774131774902,0.526732385158539,-9.859473228454589,27.79
0,716,-0.007456964813173,0.022370895370841,0.002130561508238,-1.637658953666687,0.498001545667648,-9.816376686096191,27.80
0,717,-0.007456964813173,0.022370895370841,0.002130561508238,-1.637658953666687,0.498001545667648,-9.816376686096191,27.80
0,718,-0.006391684990376,0.020240332931280,0.002130561508238,-1.632870435714722,0.550674796104431,-9.892992019653320,27.80
0,719,-0.006391684990376,0.021305613219738,0.002130561508238,-1.652024269104004,0.498001545667648,-9.883415222167968,27.78
0,720,-0.007456964813173,0.022370895370841,0.002130561508238,-1.584985733032227,0.531520903110504,-9.926511764526367,27.78
0,721,-0.006391684990376,0.019175054505467,0.003195842495188,-1.647235870361328,0.545886337757111,-9.816376686096191,27.79
0,722,-0.005326403304935,0.022370895370841,0.001065280754119,-1.642447471618652,0.512367010116577,-9.816376686096191,27.77
0,723,-0.005326403304935,0.021305613219738,0.002130561508238,-1.628082036972046,0.521943926811218,-9.883415222167968,27.79
0,724,-0.007456964813173,0.020240332931280,0.003195842495188,-1.642447471618652,0.483636111021042,-9.873838424682617,27.78
0,725,-0.006391684990376,0.022370895370841,0.001065280754119,-1.637658953666687,0.545886337757111,-9.840318679809570,27.80
0,726,-0.007456964813173,0.022370895370841,0.003195842495188,-1.637658953666687,0.512367010116577,-9.892992019653320,27.79
0,727,-0.005326403304935,0.018109772354364,0.001065280754119,-1.675966739654541,0.512367010116577,-9.821165084838867,27.78
0,728,-0.006391684990376,0.021305613219738,0.002130561508238,-1.637658953666687,0.531520903110504,-9.883415222167968,27.79
0,729,-0.006391684990376,0.020240332931280,0.002130561508238,-1.608928084373474,0.550674796104431,-9.845107078552246,27.81
0,730,-0.006391684990376,0.020240332931280,0.002130561508238,-1.608928084373474,0.550674796104431,-9.845107078552246,27.81
0,731,-0.006391684990376,0.022370895370841,0.002130561508238,-1.608928084373474,0.565040230751038,-9.849896430969238,27.77
0,732,-0.005326403304935,0.020240332931280,0.003195842495188,-1.675966739654541,0.550674796104431,-9.849896430969238,27.78
0,733,-0.007456964813173,0.020240332931280,0.001065280754119,-1.652024269104004,0.526732385158539,-9.849896430969238,27.81
0,734,-0.006391684990376,0.022370895370841,0.002130561508238,-1.613716483116150,0.517155468463898,-9.849896430969238,27.82
0,735,-0.005326403304935,0.020240332931280,0.003195842495188,-1.623293638229370,0.541097819805145,-9.883415222167968,27.80
0,736,-0.006391684990376,0.020240332931280,0.000000000000000,-1.604139685630798,0.565040230751038,-9.830741882324218,27.81
0,737,-0.006391684990376,0.020240332931280,0.000000000000000,-1.604139685630798,0.565040230751038,-9.830741882324218,27.81
0,738,-0.006391684990376,0.018109772354364,0.002130561508238,-1.647235870361328,0.565040230751038,-9.845107078552246,27.81
0,739,-0.006391684990376,0.021305613219738,0.002130561508238,-1.604139685630798,0.512367010116577,-9.840318679809570,27.78
0,740,-0.005326403304935,0.020240332931280,0.002130561508238,-1.652024269104004,0.488424599170685,-9.821165084838867,27.81
0,741,-0.004261123016477,0.020240332931280,0.002130561508238,-1.647235870361328,0.517155468463898,-9.854684829711914,27.79
0,742,-0.006391684990376,0.020240332931280,0.002130561508238,-1.642447471618652,0.565040230751038,-9.873838424682617,27.80
0,743,-0.005326403304935,0.020240332931280,0.002130561508238,-1.656812906265259,0.512367010116577,-9.864261627197265,27.79
0,744,-0.006391684990376,0.020240332931280,0.002130561508238,-1.637658953666687,0.545886337757111,-9.869050025939941,27.81
0,745,-0.005326403304935,0.022370895370841,0.001065280754119,-1.584985733032227,0.502790033817291,-9.802011489868164,27.78
0,746,-0.006391684990376,0.020240332931280,0.003195842495188,-1.666389822959900,0.517155468463898,-9.864261627197265,27.81
0,747,-0.006391684990376,0.020240332931280,0.001065280754119,-1.623293638229370,0.569828689098358,-9.802011489868164,27.82
0,748,-0.007456964813173,0.020240332931280,0.002130561508238,-1.647235870361328,0.541097819805145,-9.854684829711914,27.78
0,749,-0.006391684990376,0.020240332931280,0.001065280754119,-1.632870435714722,0.541097819805145,-9.835530281066894,27.80
0,750,-0.006391684990376,0.020240332931280,0.001065280754119,-1.632870435714722,0.541097819805145,-9.835530281066894,27.80
0,751,-0.006391684990376,0.020240332931280,0.000000000000000,-1.642447471618652,0.526732385158539,-9.854684829711914,27.79
0,752,-0.005326403304935,0.022370895370841,0.003195842495188,-1.613716483116150,0.531520903110504,-9.849896430969238,27.80
0,753,-0.005326403304935,0.019175054505467,0.002130561508238,-1.637658953666687,0.531520903110504,-9.892992019653320,27.82
0,754,-0.005326403304935,0.021305613219738,0.001065280754119,-1.584985733032227,0.550674796104431,-9.840318679809570,27.79
0,755,-0.006391684990376,0.019175054505467,0.002130561508238,-1.628082036972046,0.536309361457825,-9.840318679809570,27.80
0,756,-0.005326403304935,0.021305613219738,0.001065280754119,-1.642447471618652,0.517155468463898,-9.854684829711914,27.80
0,757,-0.005326403304935,0.021305613219738,0.001065280754119,-1.642447471618652,0.517155468463898,-9.854684829711914,27.80
0,758,-0.006391684990376,0.020240332931280,-0.001065280754119,-1.666389822959900,0.531520903110504,-9.864261627197265,27.81
0,759,-0.007456964813173,0.020240332931280,0.003195842495188,-1.618505001068115,0.517155468463898,-9.859473228454589,27.78
0,760,-0.006391684990376,0.018109772354364,0.003195842495188,-1.637658953666687,0.498001545667648,-9.854684829711914,27.81
0,761,-0.006391684990376,0.021305613219738,0.002130561508238,-1.642447471618652,0.507578492164612,-9.854684829711914,27.81
0,762,-0.006391684990376,0.021305613219738,0.002130561508238,-1.604139685630798,0.521943926811218,-9.854684829711914,27.80
0,763,-0.006391684990376,0.020240332931280,0.002130561508238,-1.652024269104004,0.536309361457825,-9.864261627197265,27.80
0,764,-0.007456964813173,0.021305613219738,0.002130561508238,-1.608928084373474,0.536309361457825,-9.888203620910644,27.81
0,765,-0.007456964813173,0.022370895370841,0.003195842495188,-1.623293638229370,0.517155468463898,-9.797223091125488,27.78
0,766,-0.006391684990376,0.019175054505467,0.001065280754119,-1.680755257606506,0.545886337757111,-9.888203620910644,27.81
0,767,-0.005326403304935,0.022370895370841,0.001065280754119,-1.632870435714722,0.536309361457825,-9.802011489868164,27.81
0,768,-0.006391684990376,0.019175054505467,0.002130561508238,-1.652024269104004,0.536309361457825,-9.864261627197265,27.81
0,769,-0.005326403304935,0.020240332931280,0.003195842495188,-1.623293638229370,0.521943926811218,-9.849896430969238,27.81
0,770,-0.005326403304935,0.020240332931280,0.003195842495188,-1.623293638229370,0.521943926811218,-9.849896430969238,27.81
0,771,-0.005326403304935,0.020240332931280,0.002130561508238,-1.628082036972046,0.488424599170685,-9.878626823425292,27.79
0,772,-0.006391684990376,0.021305613219738,0.001065280754119,-1.628082036972046,0.512367010116577,-9.816376686096191,27.80
0,773,-0.006391684990376,0.019175054505467,0.003195842495188,-1.628082036972046,0.507578492164612,-9.869050025939941,27.81
0,774,-0.006391684990376,0.021305613219738,0.002130561508238,-1.613716483116150,0.536309361457825,-9.840318679809570,27.80
0,775,-0.006391684990376,0.021305613219738,0.002130561508238,-1.652024269104004,0.517155468463898,-9.825953483581542,27.81
0,776,-0.006391684990376,0.022370895370841,0.001065280754119,-1.604139685630798,0.531520903110504,-9.840318679809570,27.80
0,777,-0.006391684990376,0.022370895370841,0.001065280754119,-1.604139685630798,0.531520903110504,-9.840318679809570,27.80
0,778,-0.006391684990376,0.021305613219738,0.002130561508238,-1.656812906265259,0.517155468463898,-9.830741882324218,27.81
0,779,-0.005326403304935,0.019175054505467,0.001065280754119,-1.671178221702576,0.536309361457825,-9.883415222167968,27.77
0,780,-0.006391684990376,0.019175054505467,0.001065280754119,-1.623293638229370,0.521943926811218,-9.830741882324218,27.82
0,781,-0.006391684990376,0.020240332931280,0.002130561508238,-1.642447471618652,0.512367010116577,-9.830741882324218,27.81
0,782,-0.005326403304935,0.020240332931280,0.002130561508238,-1.618505001068115,0.517155468463898,-9.811588287353515,27.80
0,783,-0.006391684990376,0.019175054505467,0.003195842495188,-1.637658953666687,0.541097819805145,-9.840318679809570,27.82
0,784,-0.005326403304935,0.020240332931280,0.001065280754119,-1.671178221702576,0.502790033817291,-9.859473228454589,27.83
0,785,-0.006391684990376,0.021305613219738,0.001065280754119,-1.599351167678833,0.555463254451752,-9.854684829711914,27.82
0,786,-0.006391684990376,0.019175054505467,0.003195842495188,-1.675966739654541,0.498001545667648,-9.845107078552246,27.82
0,787,-0.005326403304935,0.021305613219738,0.001065280754119,-1.656812906265259,0.502790033817291,-9.840318679809570,27.81
0,788,-0.006391684990376,0.019175054505467,0.002130561508238,-1.618505001068115,0.541097819805145,-9.873838424682617,27.80
0,789,-0.005326403304935,0.020240332931280,0.003195842495188,-1.652024269104004,0.526732385158539,-9.888203620910644,27.80
0,790,-0.005326403304935,0.020240332931280,0.003195842495188,-1.652024269104004,0.526732385158539,-9.888203620910644,27.80
0,791,-0.006391684990376,0.023436175659299,0.003195842495188,-1.584985733032227,0.555463254451752,-9.845107078552246,27.79
0,792,-0.005326403304935,0.019175054505467,0.001065280754119,-1.695120692253113,0.493213087320328,-9.878626823425292,27.81
0,793,-0.007456964813173,0.021305613219738,0.002130561508238,-1.580197215080261,0.526732385158539,-9.873838424682617,27.80
0,794,-0.005326403304935,0.019175054505467,0.000000000000000,-1.618505001068115,0.521943926811218,-9.835530281066894,27.81
0,795,-0.005326403304935,0.021305613219738,0.001065280754119,-1.632870435714722,0.507578492164612,-9.926511764526367,27.82
0,796,-0.006391684990376,0.020240332931280,0.001065280754119,-1.584985733032227,0.521943926811218,-9.902568817138671,27.81
0,797,-0.006391684990376,0.020240332931280,0.001065280754119,-1.584985733032227,0.521943926811218,-9.902568817138671,27.81
0,798,-0.007456964813173,0.021305613219738,0.000000000000000,-1.661601424217224,0.512367010116577,-9.811588287353515,27.82
0,799,-0.006391684990376,0.019175054505467,0.002130561508238,-1.652024269104004,0.521943926811218,-9.830741882324218,27.81
0,800,-0.006391684990376,0.020240332931280,0.004261123016477,-1.613716483116150,0.526732385158539,-9.825953483581542,27.83
0,801,-0.006391684990376,0.019175054505467,0.002130561508238,-1.647235870361328,0.493213087320328,-9.830741882324218,27.80
0,802,-0.006391684990376,0.021305613219738,0.002130561508238,-1.628082036972046,0.512367010116577,-9.845107078552246,27.81
0,803,-0.006391684990376,0.018109772354364,0.002130561508238,-1.656812906265259,0.507578492164612,-9.825953483581542,27.79
0,804,-0.006391684990376,0.018109772354364,0.002130561508238,-1.656812906265259,0.507578492164612,-9.825953483581542,27.79
0,805,-0.005326403304935,0.020240332931280,0.001065280754119,-1.652024269104004,0.536309361457825,-9.845107078552246,27.81
0,806,-0.006391684990376,0.022370895370841,0.001065280754119,-1.604139685630798,0.507578492164612,-9.849896430969238,27.81
0,807,-0.005326403304935,0.019175054505467,0.003195842495188,-1.642447471618652,0.498001545667648,-9.835530281066894,27.80
0,808,-0.006391684990376,0.022370895370841,0.000000000000000,-1.618505001068115,0.512367010116577,-9.825953483581542,27.82
0,809,-0.006391684990376,0.021305613219738,0.002130561508238,-1.608928084373474,0.569828689098358,-9.869050025939941,27.81
0,810,-0.006391684990376,0.021305613219738,0.002130561508238,-1.608928084373474,0.569828689098358,-9.869050025939941,27.81
0,811,-0.006391684990376,0.022370895370841,0.003195842495188,-1.580197215080261,0.521943926811218,-9.873838424682617,27.79
0,812,-0.004261123016477,0.019175054505467,0.002130561508238,-1.675966739654541,0.507578492164612,-9.816376686096191,27.80
0,813,-0.007456964813173,0.023436175659299,0.002130561508238,-1.652024269104004,0.478847652673721,-9.869050025939941,27.81
0,814,-0.005326403304935,0.020240332931280,0.001065280754119,-1.608928084373474,0.565040230751038,-9.830741882324218,27.81
0,815,-0.006391684990376,0.021305613219738,0.002130561508238,-1.656812906265259,0.507578492164612,-9.859473228454589,27.82
0,816,-0.005326403304935,0.021305613219738,0.001065280754119,-1.580197215080261,0.555463254451752,-9.883415222167968,27.83
0,817,-0.005326403304935,0.021305613219738,0.001065280754119,-1.580197215080261,0.555463254451752,-9.883415222167968,27.83
0,818,-0.006391684990376,0.020240332931280,0.000000000000000,-1.632870435714722,0.521943926811218,-9.873838424682617,27.83
0,819,-0.006391684990376,0.022370895370841,0.002130561508238,-1.575408697128296,0.531520903110504,-9.902568817138671,27.81
0,820,-0.007456964813173,0.019175054505467,0.002130561508238,-1.628082036972046,0.536309361457825,-9.840318679809570,27.82
0,821,-0.006391684990376,0.021305613219738,0.002130561508238,-1.599351167678833,0.517155468463898,-9.845107078552246,27.81
0,822,-0.006391684990376,0.021305613219738,0.003195842495188,-1.599351167678833,0.517155468463898,-9.830741882324218,27.82
0,823,-0.005326403304935,0.020240332931280,0.001065280754119,-1.623293638229370,0.536309361457825,-9.797223091125488,27.80
0,824,-0.005326403304935,0.020240332931280,0.001065280754119,-1.623293638229370,0.536309361457825,-9.797223091125488,27.80
0,825,-0.006391684990376,0.020240332931280,0.001065280754119,-1.647235870361328,0.498001545667648,-9.849896430969238,27.81
0,826,-0.006391684990376,0.021305613219738,0.001065280754119,-1.666389822959900,0.521943926811218,-9.878626823425292,27.80
0,827,-0.007456964813173,0.022370895370841,0.001065280754119,-1.632870435714722,0.550674796104431,-9.883415222167968,27.80
0,828,-0.006391684990376,0.020240332931280,0.002130561508238,-1.637658953666687,0.512367010116577,-9.878626823425292,27.83
0,829,-0.005326403304935,0.020240332931280,0.000000000000000,-1.580197215080261,0.579405665397644,-9.849896430969238,27.80
0,830,-0.005326403304935,0.020240332931280,0.000000000000000,-1.580197215080261,0.579405665397644,-9.849896430969238,27.80
0,831,-0.005326403304935,0.021305613219738,0.001065280754119,-1.599351167678833,0.517155468463898,-9.883415222167968,27.80
0,832,-0.006391684990376,0.021305613219738,0.003195842495188,-1.618505001068115,0.541097819805145,-9.816376686096191,27.80
0,833,-0.006391684990376,0.019175054505467,0.001065280754119,-1.671178221702576,0.541097819805145,-9.854684829711914,27.82
0,834,-0.006391684990376,0.019175054505467,0.002130561508238,-1.561043381690979,0.521943926811218,-9.845107078552246,27.83
0,835,-0.005326403304935,0.021305613219738,0.003195842495188,-1.628082036972046,0.545886337757111,-9.888203620910644,27.81
0,836,-0.006391684990376,0.020240332931280,0.000000000000000,-1.652024269104004,0.507578492164612,-9.845107078552246,27.82
0,837,-0.006391684990376,0.020240332931280,0.000000000000000,-1.652024269104004,0.507578492164612,-9.845107078552246,27.82
0,838,-0.006391684990376,0.019175054505467,0.002130561508238,-1.642447471618652,0.565040230751038,-9.821165084838867,27.80
0,839,-0.006391684990376,0.022370895370841,0.001065280754119,-1.604139685630798,0.550674796104431,-9.825953483581542,27.80
0,840,-0.006391684990376,0.020240332931280,0.002130561508238,-1.623293638229370,0.517155468463898,-9.845107078552246,27.79
0,841,-0.005326403304935,0.020240332931280,0.002130561508238,-1.642447471618652,0.507578492164612,-9.888203620910644,27.81
0,842,-0.007456964813173,0.020240332931280,0.002130561508238,-1.637658953666687,0.521943926811218,-9.878626823425292,27.81
0,843,-0.006391684990376,0.020240332931280,0.002130561508238,-1.623293638229370,0.469270706176758,-9.854684829711914,27.83
0,844,-0.006391684990376,0.020240332931280,0.002130561508238,-1.623293638229370,0.469270706176758,-9.854684829711914,27.83
0,845,-0.006391684990376,0.021305613219738,0.001065280754119,-1.604139685630798,0.502790033817291,-9.883415222167968,27.82
0,846,-0.005326403304935,0.019175054505467,0.001065280754119,-1.666389822959900,0.493213087320328,-9.907357215881347,27.80
0,847,-0.004261123016477,0.021305613219738,0.001065280754119,-1.632870435714722,0.569828689098358,-9.864261627197265,27.80
0,848,-0.005326403304935,0.021305613219738,0.002130561508238,-1.628082036972046,0.545886337757111,-9.864261627197265,27.81
0,849,-0.005326403304935,0.021305613219738,0.003195842495188,-1.618505001068115,0.541097819805145,-9.821165084838867,27.83
0,850,-0.005326403304935,0.021305613219738,0.003195842495188,-1.618505001068115,0.541097819805145,-9.821165084838867,27.83
0,851,-0.005326403304935,0.019175054505467,0.002130561508238,-1.647235870361328,0.478847652673721,-9.835530281066894,27.80
0,852,-0.006391684990376,0.021305613219738,0.002130561508238,-1.680755257606506,0.550674796104431,-9.864261627197265,27.82
0,853,-0.006391684990376,0.021305613219738,0.002130561508238,-1.623293638229370,0.560251772403717,-9.912145614624023,27.84
0,854,-0.005326403304935,0.020240332931280,0.002130561508238,-1.628082036972046,0.521943926811218,-9.859473228454589,27.82
0,855,-0.005326403304935,0.019175054505467,0.001065280754119,-1.652024269104004,0.464482218027115,-9.859473228454589,27.82
0,856,-0.006391684990376,0.021305613219738,0.003195842495188,-1.570620298385620,0.531520903110504,-9.849896430969238,27.80
0,857,-0.006391684990376,0.021305613219738,0.003195842495188,-1.570620298385620,0.531520903110504,-9.849896430969238,27.80
0,858,-0.006391684990376,0.022370895370841,0.002130561508238,-1.618505001068115,0.531520903110504,-9.821165084838867,27.84
0,859,-0.004261123016477,0.019175054505467,0.002130561508238,-1.618505001068115,0.521943926811218,-9.754126548767089,27.82
0,860,-0.006391684990376,0.022370895370841,0.003195842495188,-1.561043381690979,0.536309361457825,-9.878626823425292,27.83
0,861,-0.004261123016477,0.020240332931280,0.002130561508238,-1.656812906265259,0.512367010116577,-9.849896430969238,27.81
0,862,-0.006391684990376,0.021305613219738,0.002130561508238,-1.584985733032227,0.498001545667648,-9.802011489868164,27.81
0,863,-0.006391684990376,0.020240332931280,0.004261123016477,-1.647235870361328,0.507578492164612,-9.849896430969238,27.83
0,864,-0.006391684990376,0.020240332931280,0.004261123016477,-1.647235870361328,0.507578492164612,-9.849896430969238,27.83
0,865,-0.007456964813173,0.022370895370841,0.001065280754119,-1.604139685630798,0.569828689098358,-9.845107078552246,27.83
0,866,-0.005326403304935,0.019175054505467,0.001065280754119,-1.584985733032227,0.526732385158539,-9.878626823425292,27.82
0,867,-0.006391684990376,0.022370895370841,0.002130561508238,-1.671178221702576,0.521943926811218,-9.854684829711914,27.83
0,868,-0.004261123016477,0.021305613219738,0.002130561508238,-1.613716483116150,0.565040230751038,-9.859473228454589,27.82
0,869,-0.005326403304935,0.021305613219738,0.003195842495188,-1.594562530517578,0.526732385158539,-9.869050025939941,27.83
0,870,-0.005326403304935,0.021305613219738,0.003195842495188,-1.594562530517578,0.526732385158539,-9.869050025939941,27.83
0,871,-0.005326403304935,0.021305613219738,0.003195842495188,-1.546677947044373,0.569828689098358,-9.897780418395996,27.82
0,872,-0.006391684990376,0.019175054505467,0.002130561508238,-1.656812906265259,0.521943926811218,-9.907357215881347,27.84
0,873,-0.006391684990376,0.021305613219738,0.001065280754119,-1.608928084373474,0.531520903110504,-9.854684829711914,27.80
0,874,-0.005326403304935,0.020240332931280,0.003195842495188,-1.613716483116150,0.531520903110504,-9.864261627197265,27.82
0,875,-0.006391684990376,0.019175054505467,0.002130561508238,-1.704697608947754,0.488424599170685,-9.840318679809570,27.82
0,876,-0.006391684990376,0.022370895370841,0.002130561508238,-1.570620298385620,0.531520903110504,-9.825953483581542,27.81
0,877,-0.006391684990376,0.022370895370841,0.002130561508238,-1.570620298385620,0.531520903110504,-9.825953483581542,27.81
0,878,-0.006391684990376,0.021305613219738,0.002130561508238,-1.642447471618652,0.541097819805145,-9.845107078552246,27.84
0,879,-0.006391684990376,0.020240332931280,0.000000000000000,-1.608928084373474,0.555463254451752,-9.849896430969238,27.81
0,880,-0.005326403304935,0.020240332931280,0.003195842495188,-1.652024269104004,0.550674796104431,-9.864261627197265,27.81
0,881,-0.006391684990376,0.020240332931280,0.001065280754119,-1.608928084373474,0.526732385158539,-9.883415222167968,27.82
0,882,-0.006391684990376,0.020240332931280,0.003195842495188,-1.637658953666687,0.541097819805145,-9.883415222167968,27.83
0,883,-0.005326403304935,0.019175054505467,0.001065280754119,-1.637658953666687,0.507578492164612,-9.830741882324218,27.83
0,884,-0.005326403304935,0.019175054505467,0.001065280754119,-1.637658953666687,0.507578492164612,-9.830741882324218,27.83
0,885,-0.006391684990376,0.019175054505467,0.002130561508238,-1.637658953666687,0.531520903110504,-9.845107078552246,27.82
0,886,-0.006391684990376,0.020240332931280,0.002130561508238,-1.661601424217224,0.483636111021042,-9.864261627197265,27.82
0,887,-0.006391684990376,0.020240332931280,0.003195842495188,-1.647235870361328,0.507578492164612,-9.864261627197265,27.82
0,888,-0.005326403304935,0.019175054505467,0.001065280754119,-1.652024269104004,0.521943926811218,-9.845107078552246,27.81
0,889,-0.008522246032953,0.022370895370841,0.002130561508238,-1.565831899642944,0.512367010116577,-9.821165084838867,27.83
0,890,-0.006391684990376,0.020240332931280,0.002130561508238,-1.623293638229370,0.502790033817291,-9.825953483581542,27.83
0,891,-0.006391684990376,0.022370895370841,0.002130561508238,-1.628082036972046,0.536309361457825,-9.864261627197265,27.82
0,892,-0.006391684990376,0.020240332931280,0.003195842495188,-1.652024269104004,0.507578492164612,-9.806799888610839,27.83
0,893,-0.007456964813173,0.022370895370841,0.001065280754119,-1.647235870361328,0.536309361457825,-9.907357215881347,27.82
0,894,-0.006391684990376,0.020240332931280,0.002130561508238,-1.637658953666687,0.574617147445679,-9.845107078552246,27.83
0,895,-0.006391684990376,0.019175054505467,0.002130561508238,-1.652024269104004,0.517155468463898,-9.849896430969238,27.83
0,896,-0.006391684990376,0.020240332931280,0.000000000000000,-1.580197215080261,0.536309361457825,-9.878626823425292,27.82
0,897,-0.006391684990376,0.020240332931280,0.000000000000000,-1.580197215080261,0.536309361457825,-9.878626823425292,27.82
0,898,-0.007456964813173,0.020240332931280,0.002130561508238,-1.675966739654541,0.512367010116577,-9.854684829711914,27.84
0,899,-0.007456964813173,0.021305613219738,0.001065280754119,-1.652024269104004,0.560251772403717,-9.792434692382812,27.81
0,900,-0.006391684990376,0.020240332931280,0.002130561508238,-1.675966739654541,0.536309361457825,-9.864261627197265,27.82
0,901,-0.006391684990376,0.023436175659299,0.001065280754119,-1.642447471618652,0.483636111021042,-9.797223091125488,27.83
0,902,-0.007456964813173,0.020240332931280,0.002130561508238,-1.604139685630798,0.569828689098358,-9.835530281066894,27.82
0,903,-0.005326403304935,0.019175054505467,0.001065280754119,-1.656812906265259,0.521943926811218,-9.825953483581542,27.84
0,904,-0.005326403304935,0.019175054505467,0.001065280754119,-1.656812906265259,0.521943926811218,-9.825953483581542,27.84
0,905,-0.005326403304935,0.019175054505467,0.001065280754119,-1.652024269104004,0.526732385158539,-9.830741882324218,27.83
0,906,-0.005326403304935,0.020240332931280,0.002130561508238,-1.671178221702576,0.517155468463898,-9.821165084838867,27.83
0,907,-0.005326403304935,0.021305613219738,0.002130561508238,-1.589774131774902,0.526732385158539,-9.869050025939941,27.83
0,908,-0.006391684990376,0.021305613219738,0.003195842495188,-1.652024269104004,0.507578492164612,-9.864261627197265,27.83
0,909,-0.007456964813173,0.021305613219738,0.001065280754119,-1.656812906265259,0.517155468463898,-9.816376686096191,27.81
0,910,-0.005326403304935,0.021305613219738,0.001065280754119,-1.594562530517578,0.502790033817291,-9.940876960754394,27.83
0,911,-0.005326403304935,0.019175054505467,0.002130561508238,-1.642447471618652,0.521943926811218,-9.912145614624023,27.82
0,912,-0.008522246032953,0.021305613219738,0.002130561508238,-1.637658953666687,0.507578492164612,-9.821165084838867,27.81
0,913,-0.005326403304935,0.020240332931280,0.001065280754119,-1.642447471618652,0.512367010116577,-9.845107078552246,27.84
0,914,-0.005326403304935,0.022370895370841,0.001065280754119,-1.580197215080261,0.517155468463898,-9.859473228454589,27.80
0,915,-0.007456964813173,0.020240332931280,0.003195842495188,-1.661601424217224,0.517155468463898,-9.907357215881347,27.82
0,916,-0.005326403304935,0.022370895370841,0.000000000000000,-1.599351167678833,0.545886337757111,-9.792434692382812,27.83
0,917,-0.005326403304935,0.022370895370841,0.000000000000000,-1.599351167678833,0.545886337757111,-9.792434692382812,27.83
0,918,-0.005326403304935,0.020240332931280,0.000000000000000,-1.652024269104004,0.493213087320328,-9.907357215881347,27.82
0,919,-0.006391684990376,0.020240332931280,0.001065280754119,-1.613716483116150,0.565040230751038,-9.802011489868164,27.83
0,920,-0.005326403304935,0.020240332931280,0.002130561508238,-1.623293638229370,0.536309361457825,-9.849896430969238,27.82
0,921,-0.006391684990376,0.020240332931280,0.003195842495188,-1.647235870361328,0.531520903110504,-9.883415222167968,27.82
0,922,-0.007456964813173,0.021305613219738,0.002130561508238,-1.628082036972046,0.531520903110504,-9.907357215881347,27.81
0,923,-0.005326403304935,0.021305613219738,0.003195842495188,-1.656812906265259,0.521943926811218,-9.835530281066894,27.81
0,924,-0.005326403304935,0.021305613219738,0.003195842495188,-1.656812906265259,0.521943926811218,-9.835530281066894,27.81
0,925,-0.006391684990376,0.021305613219738,0.003195842495188,-1.575408697128296,0.526732385158539,-9.730184555053710,27.83
0,926,-0.006391684990376,0.019175054505467,0.003195842495188,-1.675966739654541,0.517155468463898,-9.931300163269042,27.83
0,927,-0.007456964813173,0.023436175659299,0.002130561508238,-1.608928084373474,0.521943926811218,-9.816376686096191,27.81
0,928,-0.006391684990376,0.020240332931280,0.001065280754119,-1.642447471618652,0.498001545667648,-9.907357215881347,27.83
0,929,-0.006391684990376,0.020240332931280,0.002130561508238,-1.675966739654541,0.545886337757111,-9.869050025939941,27.84
0,930,-0.006391684990376,0.021305613219738,0.001065280754119,-1.637658953666687,0.521943926811218,-9.878626823425292,27.84
0,931,-0.004261123016477,0.020240332931280,0.001065280754119,-1.589774131774902,0.502790033817291,-9.854684829711914,27.83
0,932,-0.006391684990376,0.021305613219738,0.002130561508238,-1.719063162803650,0.512367010116577,-9.802011489868164,27.81
0,933,-0.004261123016477,0.020240332931280,0.001065280754119,-1.570620298385620,0.488424599170685,-9.825953483581542,27.82
0,934,-0.006391684990376,0.021305613219738,0.002130561508238,-1.671178221702576,0.507578492164612,-9.873838424682617,27.82
0,935,-0.007456964813173,0.021305613219738,0.002130561508238,-1.666389822959900,0.488424599170685,-9.883415222167968,27.83
0,936,-0.006391684990376,0.021305613219738,0.001065280754119,-1.613716483116150,0.521943926811218,-9.816376686096191,27.83
0,937,-0.006391684990376,0.021305613219738,0.001065280754119,-1.613716483116150,0.521943926811218,-9.816376686096191,27.83
0,938,-0.006391684990376,0.022370895370841,0.001065280754119,-1.642447471618652,0.545886337757111,-9.864261627197265,27.82
0,939,-0.005326403304935,0.019175054505467,0.001065280754119,-1.656812906265259,0.545886337757111,-9.806799888610839,27.84
0,940,-0.006391684990376,0.020240332931280,0.001065280754119,-1.604139685630798,0.526732385158539,-9.835530281066894,27.83
0,941,-0.007456964813173,0.020240332931280,0.002130561508238,-1.604139685630798,0.545886337757111,-9.840318679809570,27.82
0,942,-0.006391684990376,0.020240332931280,0.001065280754119,-1.647235870361328,0.483636111021042,-9.859473228454589,27.84
0,943,-0.006391684990376,0.021305613219738,0.002130561508238,-1.628082036972046,0.536309361457825,-9.811588287353515,27.84
0,944,-0.006391684990376,0.021305613219738,0.002130561508238,-1.628082036972046,0.536309361457825,-9.811588287353515,27.84
0,945,-0.006391684990376,0.022370895370841,0.003195842495188,-1.628082036972046,0.521943926811218,-9.806799888610839,27.83
0,946,-0.006391684990376,0.020240332931280,0.001065280754119,-1.613716483116150,0.517155468463898,-9.869050025939941,27.83
0,947,-0.005326403304935,0.020240332931280,0.001065280754119,-1.661601424217224,0.493213087320328,-9.816376686096191,27.82
0,948,-0.005326403304935,0.021305613219738,0.002130561508238,-1.623293638229370,0.526732385158539,-9.864261627197265,27.84
0,949,-0.006391684990376,0.021305613219738,0.002130561508238,-1.642447471618652,0.512367010116577,-9.878626823425292,27.82
0,950,-0.007456964813173,0.021305613219738,0.001065280754119,-1.589774131774902,0.531520903110504,-9.787646293640136,27.84
0,951,-0.007456964813173,0.021305613219738,0.001065280754119,-1.589774131774902,0.531520903110504,-9.787646293640136,27.84
0,952,-0.006391684990376,0.020240332931280,0.002130561508238,-1.675966739654541,0.493213087320328,-9.931300163269042,27.84
0,953,-0.005326403304935,0.020240332931280,0.001065280754119,-1.632870435714722,0.536309361457825,-9.916934013366699,27.84
0,954,-0.005326403304935,0.019175054505467,0.002130561508238,-1.628082036972046,0.536309361457825,-9.845107078552246,27.84
0,955,-0.006391684990376,0.019175054505467,0.001065280754119,-1.695120692253113,0.498001545667648,-9.869050025939941,27.83
0,956,-0.006391684990376,0.022370895370841,0.002130561508238,-1.556254744529724,0.531520903110504,-9.840318679809570,27.83
0,957,-0.006391684990376,0.022370895370841,0.002130561508238,-1.556254744529724,0.531520903110504,-9.840318679809570,27.83
0,958,-0.006391684990376,0.020240332931280,0.002130561508238,-1.608928084373474,0.526732385158539,-9.830741882324218,27.81
0,959,-0.006391684990376,0.019175054505467,0.001065280754119,-1.623293638229370,0.555463254451752,-9.825953483581542,27.83
0,960,-0.006391684990376,0.021305613219738,0.001065280754119,-1.666389822959900,0.517155468463898,-9.869050025939941,27.84
0,961,-0.006391684990376,0.022370895370841,0.002130561508238,-1.637658953666687,0.493213087320328,-9.840318679809570,27.84
0,962,-0.004261123016477,0.020240332931280,0.002130561508238,-1.623293638229370,0.541097819805145,-9.883415222167968,27.84
0,963,-0.004261123016477,0.020240332931280,0.002130561508238,-1.628082036972046,0.526732385158539,-9.859473228454589,27.85
0,964,-0.004261123016477,0.020240332931280,0.002130561508238,-1.628082036972046,0.526732385158539,-9.859473228454589,27.85
0,965,-0.005326403304935,0.019175054505467,0.001065280754119,-1.652024269104004,0.531520903110504,-9.883415222167968,27.83
0,966,-0.005326403304935,0.021305613219738,0.001065280754119,-1.652024269104004,0.517155468463898,-9.892992019653320,27.84
0,967,-0.006391684990376,0.019175054505467,0.001065280754119,-1.594562530517578,0.517155468463898,-9.864261627197265,27.82
0,968,-0.005326403304935,0.019175054505467,0.002130561508238,-1.685543656349182,0.507578492164612,-9.849896430969238,27.84
0,969,-0.007456964813173,0.021305613219738,0.003195842495188,-1.652024269104004,0.593771100044251,-9.849896430969238,27.84
0,970,-0.005326403304935,0.020240332931280,0.003195842495188,-1.656812906265259,0.478847652673721,-9.864261627197265,27.82
0,971,-0.005326403304935,0.020240332931280,0.003195842495188,-1.656812906265259,0.478847652673721,-9.864261627197265,27.82
0,972,-0.006391684990376,0.019175054505467,0.001065280754119,-1.671178221702576,0.483636111021042,-9.864261627197265,27.83
0,973,-0.006391684990376,0.021305613219738,0.002130561508238,-1.623293638229370,0.507578492164612,-9.816376686096191,27.82
0,974,-0.006391684990376,0.020240332931280,0.001065280754119,-1.666389822959900,0.526732385158539,-9.840318679809570,27.84
0,975,-0.005326403304935,0.021305613219738,0.001065280754119,-1.661601424217224,0.517155468463898,-9.897780418395996,27.83
