imu,it,ex,ey,ez,ax,ay,az,temp
11,0,-0.004261123016477,0.041545946151018,-0.007456964813173,-0.804464042186737,-1.867505788803100,-8.485180854797363,26.28
11,1,-0.006391684990376,0.041545946151018,-0.007456964813173,-0.842771828174591,-1.867505788803100,-8.470814704895019,26.31
11,2,-0.004261123016477,0.041545946151018,-0.006391684990376,-0.842771828174591,-1.833986520767212,-8.542641639709472,26.30
11,3,-0.004261123016477,0.041545946151018,-0.006391684990376,-0.842771828174591,-1.833986520767212,-8.542641639709472,26.30
11,4,-0.004261123016477,0.041545946151018,-0.006391684990376,-0.847560346126556,-1.867505788803100,-8.499546051025390,26.30
11,5,-0.005326403304935,0.041545946151018,-0.008522246032953,-0.852348804473877,-1.833986520767212,-8.513911247253417,26.31
11,6,-0.003195842495188,0.042611226439476,-0.007456964813173,-0.866714239120483,-1.896236658096313,-8.451661109924316,26.30
11,7,-0.005326403304935,0.040480665862560,-0.006391684990376,-0.890656650066376,-1.862717270851135,-8.518699645996093,26.32
11,8,-0.004261123016477,0.041545946151018,-0.007456964813173,-0.852348804473877,-1.872294425964355,-8.480391502380371,26.30
11,9,-0.005326403304935,0.041545946151018,-0.005326403304935,-0.852348804473877,-1.833986520767212,-8.566584587097167,26.31
11,10,-0.005326403304935,0.041545946151018,-0.005326403304935,-0.852348804473877,-1.833986520767212,-8.566584587097167,26.31
11,11,-0.004261123016477,0.041545946151018,-0.007456964813173,-0.837983369827271,-1.862717270851135,-8.470814704895019,26.32
11,12,-0.004261123016477,0.041545946151018,-0.005326403304935,-0.833194911479950,-1.862717270851135,-8.499546051025390,26.31
11,13,-0.003195842495188,0.040480665862560,-0.006391684990376,-0.857137262821198,-1.862717270851135,-8.504334449768066,26.32
11,14,-0.004261123016477,0.040480665862560,-0.006391684990376,-0.823617935180664,-1.877082824707031,-8.499546051025390,26.31
11,15,-0.003195842495188,0.041545946151018,-0.006391684990376,-0.866714239120483,-1.838774919509888,-8.523488044738769,26.32
11,16,-0.004261123016477,0.041545946151018,-0.005326403304935,-0.833194911479950,-1.838774919509888,-8.494757652282714,26.30
11,17,-0.004261123016477,0.040480665862560,-0.006391684990376,-0.871502697467804,-1.857928872108459,-8.523488044738769,26.32
11,18,-0.005326403304935,0.041545946151018,-0.007456964813173,-0.866714239120483,-1.853140473365784,-8.528276443481445,26.31
11,19,-0.006391684990376,0.042611226439476,-0.007456964813173,-0.852348804473877,-1.886659741401672,-8.552218437194824,26.31
11,20,-0.004261123016477,0.041545946151018,-0.007456964813173,-0.837983369827271,-1.862717270851135,-8.552218437194824,26.32
11,21,-0.005326403304935,0.041545946151018,-0.007456964813173,-0.823617935180664,-1.881871223449707,-8.485180854797363,26.30
11,22,-0.004261123016477,0.040480665862560,-0.006391684990376,-0.823617935180664,-1.877082824707031,-8.504334449768066,26.32
11,23,-0.005326403304935,0.042611226439476,-0.007456964813173,-0.842771828174591,-1.862717270851135,-8.533064842224121,26.31
11,24,-0.004261123016477,0.041545946151018,-0.006391684990376,-0.847560346126556,-1.862717270851135,-8.475603103637695,26.32
11,25,-0.004261123016477,0.041545946151018,-0.006391684990376,-0.847560346126556,-1.862717270851135,-8.475603103637695,26.32
11,26,-0.005326403304935,0.041545946151018,-0.005326403304935,-0.876291215419769,-1.857928872108459,-8.518699645996093,26.30
11,27,-0.006391684990376,0.042611226439476,-0.007456964813173,-0.823617935180664,-1.857928872108459,-8.480391502380371,26.31
11,28,-0.004261123016477,0.041545946151018,-0.007456964813173,-0.866714239120483,-1.881871223449707,-8.489969253540039,26.31
11,29,-0.004261123016477,0.041545946151018,-0.005326403304935,-0.837983369827271,-1.829198002815246,-8.523488044738769,26.31
11,30,-0.004261123016477,0.042611226439476,-0.006391684990376,-0.847560346126556,-1.881871223449707,-8.499546051025390,26.33
11,31,-0.003195842495188,0.041545946151018,-0.006391684990376,-0.837983369827271,-1.824409484863281,-8.561796188354492,26.32
11,32,-0.003195842495188,0.041545946151018,-0.006391684990376,-0.837983369827271,-1.824409484863281,-8.561796188354492,26.32
11,33,-0.004261123016477,0.040480665862560,-0.007456964813173,-0.857137262821198,-1.838774919509888,-8.489969253540039,26.30
11,34,-0.005326403304935,0.041545946151018,-0.007456964813173,-0.799675583839417,-1.881871223449707,-8.528276443481445,26.31
11,35,-0.004261123016477,0.040480665862560,-0.005326403304935,-0.823617935180664,-1.857928872108459,-8.504334449768066,26.30
11,36,-0.006391684990376,0.040480665862560,-0.005326403304935,-0.814041018486023,-1.843563318252563,-8.523488044738769,26.30
11,37,-0.005326403304935,0.041545946151018,-0.006391684990376,-0.833194911479950,-1.862717270851135,-8.432506561279296,26.31
11,38,-0.004261123016477,0.041545946151018,-0.005326403304935,-0.833194911479950,-1.881871223449707,-8.451661109924316,26.32
11,39,-0.005326403304935,0.040480665862560,-0.005326403304935,-0.847560346126556,-1.886659741401672,-8.557006835937500,26.32
11,40,-0.005326403304935,0.040480665862560,-0.005326403304935,-0.847560346126556,-1.886659741401672,-8.557006835937500,26.32
11,41,-0.004261123016477,0.042611226439476,-0.006391684990376,-0.857137262821198,-1.886659741401672,-8.494757652282714,26.32
11,42,-0.004261123016477,0.041545946151018,-0.005326403304935,-0.814041018486023,-1.853140473365784,-8.480391502380371,26.30
11,43,-0.004261123016477,0.040480665862560,-0.007456964813173,-0.866714239120483,-1.877082824707031,-8.480391502380371,26.32
11,44,-0.004261123016477,0.041545946151018,-0.006391684990376,-0.842771828174591,-1.867505788803100,-8.489969253540039,26.30
11,45,-0.004261123016477,0.042611226439476,-0.007456964813173,-0.847560346126556,-1.833986520767212,-8.533064842224121,26.31
11,46,-0.006391684990376,0.041545946151018,-0.005326403304935,-0.818829476833344,-1.857928872108459,-8.523488044738769,26.32
11,47,-0.006391684990376,0.041545946151018,-0.005326403304935,-0.818829476833344,-1.857928872108459,-8.523488044738769,26.32
11,48,-0.005326403304935,0.041545946151018,-0.006391684990376,-0.842771828174591,-1.886659741401672,-8.523488044738769,26.34
11,49,-0.006391684990376,0.042611226439476,-0.006391684990376,-0.852348804473877,-1.857928872108459,-8.509122848510742,26.32
11,50,-0.004261123016477,0.040480665862560,-0.007456964813173,-0.837983369827271,-1.853140473365784,-8.547430038452148,26.32
11,51,-0.007456964813173,0.041545946151018,-0.006391684990376,-0.823617935180664,-1.862717270851135,-8.513911247253417,26.31
11,52,-0.003195842495188,0.040480665862560,-0.007456964813173,-0.881079673767090,-1.862717270851135,-8.499546051025390,26.32
11,53,-0.005326403304935,0.042611226439476,-0.006391684990376,-0.852348804473877,-1.872294425964355,-8.504334449768066,26.33
11,54,-0.004261123016477,0.040480665862560,-0.007456964813173,-0.842771828174591,-1.843563318252563,-8.499546051025390,26.32
11,55,-0.006391684990376,0.041545946151018,-0.006391684990376,-0.847560346126556,-1.829198002815246,-8.494757652282714,26.30
11,56,-0.005326403304935,0.041545946151018,-0.005326403304935,-0.833194911479950,-1.848351955413818,-8.566584587097167,26.30
11,57,-0.004261123016477,0.041545946151018,-0.005326403304935,-0.842771828174591,-1.881871223449707,-8.552218437194824,26.31
11,58,-0.005326403304935,0.041545946151018,-0.007456964813173,-0.842771828174591,-1.901025056838989,-8.518699645996093,26.30
11,59,-0.005326403304935,0.041545946151018,-0.006391684990376,-0.833194911479950,-1.867505788803100,-8.518699645996093,26.32
11,60,-0.003195842495188,0.040480665862560,-0.005326403304935,-0.818829476833344,-1.843563318252563,-8.499546051025390,26.33
11,61,-0.004261123016477,0.041545946151018,-0.007456964813173,-0.814041018486023,-1.833986520767212,-8.475603103637695,26.32
11,62,-0.004261123016477,0.041545946151018,-0.007456964813173,-0.814041018486023,-1.833986520767212,-8.475603103637695,26.32
11,63,-0.003195842495188,0.041545946151018,-0.006391684990376,-0.823617935180664,-1.881871223449707,-8.480391502380371,26.33
11,64,-0.005326403304935,0.041545946151018,-0.006391684990376,-0.852348804473877,-1.872294425964355,-8.547430038452148,26.33
11,65,-0.005326403304935,0.041545946151018,-0.006391684990376,-0.866714239120483,-1.891448259353638,-8.485180854797363,26.32
11,66,-0.005326403304935,0.041545946151018,-0.007456964813173,-0.847560346126556,-1.848351955413818,-8.513911247253417,26.30
11,67,-0.005326403304935,0.041545946151018,-0.007456964813173,-0.828406453132629,-1.886659741401672,-8.576161384582519,26.34
11,68,-0.004261123016477,0.041545946151018,-0.006391684990376,-0.828406453132629,-1.857928872108459,-8.499546051025390,26.32
11,69,-0.004261123016477,0.041545946151018,-0.006391684990376,-0.828406453132629,-1.857928872108459,-8.499546051025390,26.32
11,70,-0.004261123016477,0.041545946151018,-0.007456964813173,-0.852348804473877,-1.886659741401672,-8.489969253540039,26.32
11,71,-0.005326403304935,0.041545946151018,-0.005326403304935,-0.852348804473877,-1.862717270851135,-8.470814704895019,26.32
11,72,-0.004261123016477,0.040480665862560,-0.004261123016477,-0.785310149192810,-1.886659741401672,-8.533064842224121,26.34
11,73,-0.003195842495188,0.041545946151018,-0.007456964813173,-0.823617935180664,-1.877082824707031,-8.580949783325195,26.32
11,74,-0.003195842495188,0.041545946151018,-0.006391684990376,-0.857137262821198,-1.872294425964355,-8.494757652282714,26.29
11,75,-0.006391684990376,0.041545946151018,-0.005326403304935,-0.828406453132629,-1.872294425964355,-8.537853240966796,26.31
11,76,-0.004261123016477,0.041545946151018,-0.005326403304935,-0.842771828174591,-1.881871223449707,-8.518699645996093,26.34
11,77,-0.004261123016477,0.041545946151018,-0.005326403304935,-0.842771828174591,-1.881871223449707,-8.518699645996093,26.34
11,78,-0.003195842495188,0.041545946151018,-0.004261123016477,-0.842771828174591,-1.901025056838989,-8.442083358764648,26.32
11,79,-0.006391684990376,0.042611226439476,-0.008522246032953,-0.837983369827271,-1.862717270851135,-8.542641639709472,26.30
11,80,-0.004261123016477,0.041545946151018,-0.005326403304935,-0.837983369827271,-1.910602211952209,-8.552218437194824,26.32
11,81,-0.005326403304935,0.041545946151018,-0.006391684990376,-0.833194911479950,-1.877082824707031,-8.533064842224121,26.31
11,82,-0.003195842495188,0.041545946151018,-0.006391684990376,-0.871502697467804,-1.877082824707031,-8.513911247253417,26.30
11,83,-0.004261123016477,0.041545946151018,-0.006391684990376,-0.847560346126556,-1.891448259353638,-8.552218437194824,26.31
11,84,-0.004261123016477,0.041545946151018,-0.006391684990376,-0.847560346126556,-1.891448259353638,-8.552218437194824,26.31
11,85,-0.005326403304935,0.041545946151018,-0.006391684990376,-0.828406453132629,-1.833986520767212,-8.528276443481445,26.30
11,86,-0.005326403304935,0.041545946151018,-0.006391684990376,-0.833194911479950,-1.896236658096313,-8.494757652282714,26.32
11,87,-0.004261123016477,0.041545946151018,-0.006391684990376,-0.833194911479950,-1.838774919509888,-8.561796188354492,26.32
11,88,-0.005326403304935,0.041545946151018,-0.007456964813173,-0.852348804473877,-1.862717270851135,-8.475603103637695,26.32
11,89,-0.003195842495188,0.042611226439476,-0.006391684990376,-0.828406453132629,-1.886659741401672,-8.533064842224121,26.33
11,90,-0.004261123016477,0.041545946151018,-0.006391684990376,-0.857137262821198,-1.838774919509888,-8.533064842224121,26.33
11,91,-0.004261123016477,0.041545946151018,-0.006391684990376,-0.857137262821198,-1.838774919509888,-8.533064842224121,26.33
11,92,-0.004261123016477,0.041545946151018,-0.005326403304935,-0.828406453132629,-1.824409484863281,-8.533064842224121,26.33
11,93,-0.004261123016477,0.041545946151018,-0.006391684990376,-0.842771828174591,-1.881871223449707,-8.561796188354492,26.30
11,94,-0.005326403304935,0.041545946151018,-0.008522246032953,-0.847560346126556,-1.862717270851135,-8.561796188354492,26.32
11,95,-0.005326403304935,0.041545946151018,-0.005326403304935,-0.837983369827271,-1.838774919509888,-8.552218437194824,26.32
11,96,-0.005326403304935,0.042611226439476,-0.006391684990376,-0.847560346126556,-1.857928872108459,-8.504334449768066,26.31
11,97,-0.003195842495188,0.040480665862560,-0.006391684990376,-0.861925780773163,-1.862717270851135,-8.537853240966796,26.33
11,98,-0.004261123016477,0.041545946151018,-0.007456964813173,-0.837983369827271,-1.905813574790954,-8.480391502380371,26.31
11,99,-0.004261123016477,0.041545946151018,-0.007456964813173,-0.837983369827271,-1.905813574790954,-8.480391502380371,26.31
11,100,-0.004261123016477,0.040480665862560,-0.007456964813173,-0.837983369827271,-1.853140473365784,-8.509122848510742,26.33
11,101,-0.005326403304935,0.041545946151018,-0.007456964813173,-0.847560346126556,-1.867505788803100,-8.485180854797363,26.32
11,102,-0.004261123016477,0.042611226439476,-0.005326403304935,-0.866714239120483,-1.857928872108459,-8.523488044738769,26.34
11,103,-0.005326403304935,0.040480665862560,-0.005326403304935,-0.866714239120483,-1.857928872108459,-8.547430038452148,26.32
11,104,-0.005326403304935,0.040480665862560,-0.005326403304935,-0.828406453132629,-1.891448259353638,-8.494757652282714,26.32
11,105,-0.004261123016477,0.041545946151018,-0.005326403304935,-0.828406453132629,-1.833986520767212,-8.489969253540039,26.33
11,106,-0.004261123016477,0.041545946151018,-0.005326403304935,-0.828406453132629,-1.833986520767212,-8.489969253540039,26.33
11,107,-0.003195842495188,0.041545946151018,-0.007456964813173,-0.833194911479950,-1.857928872108459,-8.542641639709472,26.31
11,108,-0.004261123016477,0.041545946151018,-0.006391684990376,-0.794887065887451,-1.877082824707031,-8.523488044738769,26.30
11,109,-0.004261123016477,0.041545946151018,-0.007456964813173,-0.847560346126556,-1.896236658096313,-8.470814704895019,26.33
11,110,-0.005326403304935,0.040480665862560,-0.005326403304935,-0.847560346126556,-1.829198002815246,-8.542641639709472,26.33
11,111,-0.004261123016477,0.042611226439476,-0.006391684990376,-0.842771828174591,-1.877082824707031,-8.504334449768066,26.31
11,112,-0.005326403304935,0.040480665862560,-0.007456964813173,-0.837983369827271,-1.833986520767212,-8.547430038452148,26.33
11,113,-0.005326403304935,0.042611226439476,-0.007456964813173,-0.823617935180664,-1.862717270851135,-8.523488044738769,26.32
11,114,-0.005326403304935,0.042611226439476,-0.007456964813173,-0.823617935180664,-1.862717270851135,-8.523488044738769,26.32
11,115,-0.004261123016477,0.041545946151018,-0.007456964813173,-0.852348804473877,-1.872294425964355,-8.528276443481445,26.32
11,116,-0.004261123016477,0.042611226439476,-0.005326403304935,-0.833194911479950,-1.886659741401672,-8.489969253540039,26.32
11,117,-0.004261123016477,0.041545946151018,-0.007456964813173,-0.842771828174591,-1.848351955413818,-8.571372985839843,26.32
11,118,-0.004261123016477,0.040480665862560,-0.005326403304935,-0.861925780773163,-1.867505788803100,-8.533064842224121,26.33
11,119,-0.004261123016477,0.040480665862560,-0.006391684990376,-0.847560346126556,-1.848351955413818,-8.552218437194824,26.31
11,120,-0.004261123016477,0.041545946151018,-0.006391684990376,-0.866714239120483,-1.862717270851135,-8.523488044738769,26.32
11,121,-0.004261123016477,0.041545946151018,-0.006391684990376,-0.866714239120483,-1.862717270851135,-8.523488044738769,26.32
11,122,-0.004261123016477,0.040480665862560,-0.006391684990376,-0.809252500534058,-1.848351955413818,-8.557006835937500,26.32
11,123,-0.003195842495188,0.041545946151018,-0.007456964813173,-0.823617935180664,-1.838774919509888,-8.523488044738769,26.32
11,124,-0.005326403304935,0.041545946151018,-0.006391684990376,-0.857137262821198,-1.891448259353638,-8.585738182067871,26.32
11,125,-0.005326403304935,0.041545946151018,-0.006391684990376,-0.833194911479950,-1.881871223449707,-8.523488044738769,26.32
11,126,-0.004261123016477,0.041545946151018,-0.006391684990376,-0.823617935180664,-1.877082824707031,-8.494757652282714,26.33
11,127,-0.004261123016477,0.040480665862560,-0.005326403304935,-0.823617935180664,-1.881871223449707,-8.523488044738769,26.33
11,128,-0.004261123016477,0.040480665862560,-0.005326403304935,-0.823617935180664,-1.881871223449707,-8.523488044738769,26.33
11,129,-0.005326403304935,0.042611226439476,-0.004261123016477,-0.828406453132629,-1.886659741401672,-8.533064842224121,26.31
11,130,-0.004261123016477,0.041545946151018,-0.006391684990376,-0.823617935180664,-1.872294425964355,-8.432506561279296,26.31
11,131,-0.004261123016477,0.042611226439476,-0.006391684990376,-0.823617935180664,-1.872294425964355,-8.499546051025390,26.31
11,132,-0.004261123016477,0.041545946151018,-0.006391684990376,-0.837983369827271,-1.905813574790954,-8.518699645996093,26.33
11,133,-0.005326403304935,0.040480665862560,-0.007456964813173,-0.866714239120483,-1.877082824707031,-8.542641639709472,26.33
11,134,-0.003195842495188,0.041545946151018,-0.008522246032953,-0.847560346126556,-1.867505788803100,-8.494757652282714,26.33
11,135,-0.005326403304935,0.041545946151018,-0.007456964813173,-0.842771828174591,-1.862717270851135,-8.494757652282714,26.32
11,136,-0.005326403304935,0.041545946151018,-0.007456964813173,-0.842771828174591,-1.862717270851135,-8.494757652282714,26.32
11,137,-0.004261123016477,0.042611226439476,-0.007456964813173,-0.885868132114410,-1.867505788803100,-8.561796188354492,26.30
11,138,-0.004261123016477,0.041545946151018,-0.007456964813173,-0.814041018486023,-1.905813574790954,-8.552218437194824,26.33
11,139,-0.004261123016477,0.041545946151018,-0.007456964813173,-0.818829476833344,-1.867505788803100,-8.542641639709472,26.32
11,140,-0.005326403304935,0.041545946151018,-0.007456964813173,-0.857137262821198,-1.862717270851135,-8.485180854797363,26.31
11,141,-0.004261123016477,0.041545946151018,-0.006391684990376,-0.823617935180664,-1.862717270851135,-8.557006835937500,26.32
11,142,-0.004261123016477,0.041545946151018,-0.005326403304935,-0.814041018486023,-1.853140473365784,-8.537853240966796,26.32
11,143,-0.004261123016477,0.041545946151018,-0.005326403304935,-0.814041018486023,-1.853140473365784,-8.537853240966796,26.32
11,144,-0.006391684990376,0.041545946151018,-0.006391684990376,-0.833194911479950,-1.848351955413818,-8.523488044738769,26.33
11,145,-0.004261123016477,0.040480665862560,-0.007456964813173,-0.871502697467804,-1.901025056838989,-8.537853240966796,26.33
11,146,-0.006391684990376,0.041545946151018,-0.007456964813173,-0.842771828174591,-1.853140473365784,-8.585738182067871,26.33
11,147,-0.004261123016477,0.041545946151018,-0.005326403304935,-0.881079673767090,-1.877082824707031,-8.485180854797363,26.32
11,148,-0.005326403304935,0.041545946151018,-0.005326403304935,-0.852348804473877,-1.881871223449707,-8.590526580810546,26.32
11,149,-0.005326403304935,0.041545946151018,-0.006391684990376,-0.852348804473877,-1.848351955413818,-8.533064842224121,26.29
11,150,-0.005326403304935,0.041545946151018,-0.006391684990376,-0.852348804473877,-1.848351955413818,-8.533064842224121,26.29
11,151,-0.004261123016477,0.040480665862560,-0.007456964813173,-0.809252500534058,-1.872294425964355,-8.470814704895019,26.32
11,152,-0.004261123016477,0.042611226439476,-0.007456964813173,-0.828406453132629,-1.877082824707031,-8.542641639709472,26.33
11,153,-0.005326403304935,0.041545946151018,-0.006391684990376,-0.828406453132629,-1.853140473365784,-8.552218437194824,26.34
11,154,-0.003195842495188,0.040480665862560,-0.006391684990376,-0.866714239120483,-1.843563318252563,-8.566584587097167,26.33
11,155,-0.005326403304935,0.040480665862560,-0.007456964813173,-0.857137262821198,-1.877082824707031,-8.499546051025390,26.34
11,156,-0.003195842495188,0.041545946151018,-0.005326403304935,-0.823617935180664,-1.872294425964355,-8.528276443481445,26.33
11,157,-0.006391684990376,0.041545946151018,-0.006391684990376,-0.852348804473877,-1.853140473365784,-8.518699645996093,26.32
11,158,-0.006391684990376,0.041545946151018,-0.006391684990376,-0.852348804473877,-1.853140473365784,-8.518699645996093,26.32
11,159,-0.005326403304935,0.042611226439476,-0.006391684990376,-0.828406453132629,-1.843563318252563,-8.537853240966796,26.30
11,160,-0.004261123016477,0.041545946151018,-0.007456964813173,-0.833194911479950,-1.848351955413818,-8.518699645996093,26.33
11,161,-0.005326403304935,0.041545946151018,-0.007456964813173,-0.814041018486023,-1.891448259353638,-8.513911247253417,26.34
11,162,-0.004261123016477,0.041545946151018,-0.006391684990376,-0.823617935180664,-1.829198002815246,-8.590526580810546,26.33
11,163,-0.004261123016477,0.041545946151018,-0.006391684990376,-0.857137262821198,-1.867505788803100,-8.489969253540039,26.32
11,164,-0.005326403304935,0.041545946151018,-0.007456964813173,-0.842771828174591,-1.853140473365784,-8.518699645996093,26.32
11,165,-0.005326403304935,0.041545946151018,-0.007456964813173,-0.842771828174591,-1.853140473365784,-8.518699645996093,26.32
11,166,-0.004261123016477,0.041545946151018,-0.006391684990376,-0.837983369827271,-1.877082824707031,-8.494757652282714,26.33
11,167,-0.003195842495188,0.042611226439476,-0.007456964813173,-0.857137262821198,-1.867505788803100,-8.566584587097167,26.32
11,168,-0.004261123016477,0.042611226439476,-0.006391684990376,-0.837983369827271,-1.857928872108459,-8.518699645996093,26.35
11,169,-0.005326403304935,0.041545946151018,-0.005326403304935,-0.876291215419769,-1.862717270851135,-8.485180854797363,26.33
11,170,-0.004261123016477,0.041545946151018,-0.006391684990376,-0.828406453132629,-1.881871223449707,-8.480391502380371,26.34
11,171,-0.005326403304935,0.041545946151018,-0.006391684990376,-0.852348804473877,-1.862717270851135,-8.499546051025390,26.34
11,172,-0.005326403304935,0.041545946151018,-0.005326403304935,-0.852348804473877,-1.872294425964355,-8.561796188354492,26.32
11,173,-0.005326403304935,0.041545946151018,-0.005326403304935,-0.852348804473877,-1.872294425964355,-8.561796188354492,26.32
11,174,-0.004261123016477,0.041545946151018,-0.006391684990376,-0.852348804473877,-1.901025056838989,-8.537853240966796,26.30
11,175,-0.004261123016477,0.041545946151018,-0.006391684990376,-0.866714239120483,-1.867505788803100,-8.489969253540039,26.32
11,176,-0.004261123016477,0.041545946151018,-0.007456964813173,-0.847560346126556,-1.833986520767212,-8.614469528198242,26.32
11,177,-0.004261123016477,0.041545946151018,-0.006391684990376,-0.861925780773163,-1.843563318252563,-8.499546051025390,26.35
11,178,-0.003195842495188,0.041545946151018,-0.007456964813173,-0.842771828174591,-1.877082824707031,-8.533064842224121,26.31
11,179,-0.004261123016477,0.040480665862560,-0.006391684990376,-0.823617935180664,-1.833986520767212,-8.513911247253417,26.31
11,180,-0.004261123016477,0.040480665862560,-0.006391684990376,-0.823617935180664,-1.833986520767212,-8.513911247253417,26.31
11,181,-0.004261123016477,0.040480665862560,-0.006391684990376,-0.861925780773163,-1.891448259353638,-8.528276443481445,26.33
11,182,-0.004261123016477,0.041545946151018,-0.005326403304935,-0.837983369827271,-1.853140473365784,-8.499546051025390,26.30
11,183,-0.003195842495188,0.040480665862560,-0.006391684990376,-0.842771828174591,-1.891448259353638,-8.504334449768066,26.32
11,184,-0.004261123016477,0.041545946151018,-0.007456964813173,-0.876291215419769,-1.838774919509888,-8.585738182067871,26.33
11,185,-0.004261123016477,0.040480665862560,-0.006391684990376,-0.837983369827271,-1.867505788803100,-8.580949783325195,26.33
11,186,-0.004261123016477,0.041545946151018,-0.006391684990376,-0.866714239120483,-1.896236658096313,-8.494757652282714,26.32
11,187,-0.004261123016477,0.041545946151018,-0.006391684990376,-0.866714239120483,-1.896236658096313,-8.494757652282714,26.32
11,188,-0.005326403304935,0.040480665862560,-0.005326403304935,-0.823617935180664,-1.891448259353638,-8.499546051025390,26.32
11,189,-0.004261123016477,0.042611226439476,-0.007456964813173,-0.861925780773163,-1.867505788803100,-8.494757652282714,26.33
11,190,-0.003195842495188,0.040480665862560,-0.005326403304935,-0.866714239120483,-1.886659741401672,-8.518699645996093,26.33
11,191,-0.006391684990376,0.043676510453224,-0.007456964813173,-0.857137262821198,-1.905813574790954,-8.528276443481445,26.33
11,192,-0.004261123016477,0.041545946151018,-0.006391684990376,-0.857137262821198,-1.886659741401672,-8.528276443481445,26.33
11,193,-0.005326403304935,0.040480665862560,-0.005326403304935,-0.852348804473877,-1.896236658096313,-8.509122848510742,26.32
11,194,-0.005326403304935,0.040480665862560,-0.006391684990376,-0.857137262821198,-1.829198002815246,-8.542641639709472,26.33
11,195,-0.005326403304935,0.040480665862560,-0.006391684990376,-0.857137262821198,-1.829198002815246,-8.542641639709472,26.33
11,196,-0.005326403304935,0.042611226439476,-0.006391684990376,-0.857137262821198,-1.824409484863281,-8.533064842224121,26.31
11,197,-0.004261123016477,0.041545946151018,-0.007456964813173,-0.852348804473877,-1.886659741401672,-8.537853240966796,26.32
11,198,-0.003195842495188,0.042611226439476,-0.005326403304935,-0.804464042186737,-1.877082824707031,-8.504334449768066,26.33
11,199,-0.004261123016477,0.040480665862560,-0.006391684990376,-0.871502697467804,-1.886659741401672,-8.561796188354492,26.31
11,200,-0.004261123016477,0.041545946151018,-0.006391684990376,-0.866714239120483,-1.857928872108459,-8.552218437194824,26.33
11,201,-0.004261123016477,0.041545946151018,-0.006391684990376,-0.847560346126556,-1.877082824707031,-8.480391502380371,26.33
11,202,-0.004261123016477,0.041545946151018,-0.006391684990376,-0.847560346126556,-1.877082824707031,-8.480391502380371,26.33
11,203,-0.004261123016477,0.040480665862560,-0.006391684990376,-0.852348804473877,-1.872294425964355,-8.537853240966796,26.33
11,204,-0.005326403304935,0.041545946151018,-0.005326403304935,-0.857137262821198,-1.867505788803100,-8.561796188354492,26.33
11,205,-0.004261123016477,0.041545946151018,-0.007456964813173,-0.871502697467804,-1.853140473365784,-8.499546051025390,26.32
11,206,-0.003195842495188,0.040480665862560,-0.006391684990376,-0.833194911479950,-1.901025056838989,-8.513911247253417,26.33
11,207,-0.005326403304935,0.041545946151018,-0.007456964813173,-0.876291215419769,-1.857928872108459,-8.528276443481445,26.33
11,208,-0.004261123016477,0.041545946151018,-0.006391684990376,-0.828406453132629,-1.857928872108459,-8.513911247253417,26.32
11,209,-0.005326403304935,0.041545946151018,-0.005326403304935,-0.847560346126556,-1.877082824707031,-8.480391502380371,26.32
11,210,-0.005326403304935,0.041545946151018,-0.005326403304935,-0.847560346126556,-1.877082824707031,-8.480391502380371,26.32
11,211,-0.004261123016477,0.040480665862560,-0.005326403304935,-0.828406453132629,-1.833986520767212,-8.499546051025390,26.33
11,212,-0.003195842495188,0.041545946151018,-0.005326403304935,-0.852348804473877,-1.867505788803100,-8.523488044738769,26.31
11,213,-0.005326403304935,0.041545946151018,-0.006391684990376,-0.814041018486023,-1.881871223449707,-8.585738182067871,26.31
11,214,-0.004261123016477,0.040480665862560,-0.006391684990376,-0.833194911479950,-1.838774919509888,-8.494757652282714,26.32
11,215,-0.004261123016477,0.040480665862560,-0.006391684990376,-0.847560346126556,-1.905813574790954,-8.494757652282714,26.31
11,216,-0.005326403304935,0.041545946151018,-0.006391684990376,-0.866714239120483,-1.896236658096313,-8.485180854797363,26.33
11,217,-0.005326403304935,0.041545946151018,-0.006391684990376,-0.866714239120483,-1.896236658096313,-8.485180854797363,26.33
11,218,-0.005326403304935,0.041545946151018,-0.007456964813173,-0.828406453132629,-1.853140473365784,-8.523488044738769,26.32
11,219,-0.006391684990376,0.042611226439476,-0.006391684990376,-0.847560346126556,-1.829198002815246,-8.513911247253417,26.34
11,220,-0.004261123016477,0.041545946151018,-0.006391684990376,-0.876291215419769,-1.872294425964355,-8.580949783325195,26.33
11,221,-0.004261123016477,0.040480665862560,-0.007456964813173,-0.780521690845490,-1.896236658096313,-8.470814704895019,26.34
11,222,-0.004261123016477,0.041545946151018,-0.006391684990376,-0.852348804473877,-1.901025056838989,-8.571372985839843,26.33
11,223,-0.004261123016477,0.041545946151018,-0.006391684990376,-0.876291215419769,-1.901025056838989,-8.485180854797363,26.33
11,224,-0.004261123016477,0.041545946151018,-0.006391684990376,-0.876291215419769,-1.901025056838989,-8.485180854797363,26.33
11,225,-0.004261123016477,0.041545946151018,-0.005326403304935,-0.837983369827271,-1.881871223449707,-8.566584587097167,26.33
11,226,-0.005326403304935,0.041545946151018,-0.006391684990376,-0.871502697467804,-1.896236658096313,-8.509122848510742,26.34
11,227,-0.004261123016477,0.041545946151018,-0.007456964813173,-0.842771828174591,-1.862717270851135,-8.518699645996093,26.31
11,228,-0.006391684990376,0.041545946151018,-0.007456964813173,-0.775733172893524,-1.853140473365784,-8.537853240966796,26.33
11,229,-0.004261123016477,0.041545946151018,-0.008522246032953,-0.833194911479950,-1.848351955413818,-8.518699645996093,26.34
11,230,-0.004261123016477,0.041545946151018,-0.005326403304935,-0.823617935180664,-1.843563318252563,-8.561796188354492,26.32
11,231,-0.005326403304935,0.040480665862560,-0.007456964813173,-0.828406453132629,-1.848351955413818,-8.504334449768066,26.33
11,232,-0.005326403304935,0.040480665862560,-0.007456964813173,-0.828406453132629,-1.848351955413818,-8.504334449768066,26.33
11,233,-0.004261123016477,0.040480665862560,-0.006391684990376,-0.857137262821198,-1.838774919509888,-8.466026306152343,26.32
11,234,-0.004261123016477,0.040480665862560,-0.005326403304935,-0.866714239120483,-1.862717270851135,-8.576161384582519,26.33
11,235,-0.004261123016477,0.040480665862560,-0.005326403304935,-0.890656650066376,-1.853140473365784,-8.504334449768066,26.33
11,236,-0.005326403304935,0.041545946151018,-0.007456964813173,-0.852348804473877,-1.853140473365784,-8.547430038452148,26.33
11,237,-0.003195842495188,0.041545946151018,-0.006391684990376,-0.823617935180664,-1.881871223449707,-8.542641639709472,26.34
11,238,-0.006391684990376,0.039415389299393,-0.006391684990376,-0.842771828174591,-1.853140473365784,-8.566584587097167,26.33
11,239,-0.006391684990376,0.039415389299393,-0.006391684990376,-0.842771828174591,-1.853140473365784,-8.566584587097167,26.33
11,240,-0.004261123016477,0.041545946151018,-0.006391684990376,-0.823617935180664,-1.877082824707031,-8.494757652282714,26.33
11,241,-0.005326403304935,0.040480665862560,-0.006391684990376,-0.857137262821198,-1.853140473365784,-8.576161384582519,26.32
11,242,-0.003195842495188,0.040480665862560,-0.006391684990376,-0.837983369827271,-1.905813574790954,-8.537853240966796,26.33
11,243,-0.005326403304935,0.041545946151018,-0.006391684990376,-0.847560346126556,-1.857928872108459,-8.547430038452148,26.33
11,244,-0.004261123016477,0.040480665862560,-0.007456964813173,-0.804464042186737,-1.867505788803100,-8.518699645996093,26.32
11,245,-0.005326403304935,0.042611226439476,-0.006391684990376,-0.837983369827271,-1.843563318252563,-8.509122848510742,26.33
11,246,-0.003195842495188,0.041545946151018,-0.005326403304935,-0.847560346126556,-1.843563318252563,-8.470814704895019,26.32
11,247,-0.003195842495188,0.040480665862560,-0.007456964813173,-0.871502697467804,-1.877082824707031,-8.557006835937500,26.34
11,248,-0.005326403304935,0.041545946151018,-0.006391684990376,-0.828406453132629,-1.867505788803100,-8.518699645996093,26.33
11,249,-0.005326403304935,0.040480665862560,-0.007456964813173,-0.818829476833344,-1.843563318252563,-8.523488044738769,26.32
11,250,-0.003195842495188,0.040480665862560,-0.006391684990376,-0.814041018486023,-1.833986520767212,-8.470814704895019,26.34
11,251,-0.004261123016477,0.041545946151018,-0.006391684990376,-0.847560346126556,-1.891448259353638,-8.489969253540039,26.33
11,252,-0.005326403304935,0.040480665862560,-0.007456964813173,-0.842771828174591,-1.881871223449707,-8.466026306152343,26.34
11,253,-0.004261123016477,0.041545946151018,-0.006391684990376,-0.852348804473877,-1.867505788803100,-8.451661109924316,26.31
11,254,-0.004261123016477,0.041545946151018,-0.006391684990376,-0.852348804473877,-1.867505788803100,-8.451661109924316,26.31
11,255,-0.005326403304935,0.040480665862560,-0.007456964813173,-0.814041018486023,-1.901025056838989,-8.557006835937500,26.32
11,256,-0.005326403304935,0.041545946151018,-0.006391684990376,-0.804464042186737,-1.814832687377930,-8.542641639709472,26.32
11,257,-0.003195842495188,0.041545946151018,-0.006391684990376,-0.885868132114410,-1.862717270851135,-8.513911247253417,26.33
11,258,-0.004261123016477,0.041545946151018,-0.006391684990376,-0.852348804473877,-1.867505788803100,-8.456449508666992,26.33
11,259,-0.003195842495188,0.041545946151018,-0.005326403304935,-0.842771828174591,-1.829198002815246,-8.547430038452148,26.33
11,260,-0.004261123016477,0.040480665862560,-0.007456964813173,-0.823617935180664,-1.877082824707031,-8.489969253540039,26.31
11,261,-0.004261123016477,0.040480665862560,-0.007456964813173,-0.823617935180664,-1.877082824707031,-8.489969253540039,26.31
11,262,-0.005326403304935,0.041545946151018,-0.007456964813173,-0.861925780773163,-1.891448259353638,-8.585738182067871,26.32
11,263,-0.003195842495188,0.040480665862560,-0.007456964813173,-0.852348804473877,-1.862717270851135,-8.509122848510742,26.32
11,264,-0.005326403304935,0.041545946151018,-0.005326403304935,-0.852348804473877,-1.867505788803100,-8.504334449768066,26.32
11,265,-0.005326403304935,0.040480665862560,-0.005326403304935,-0.861925780773163,-1.872294425964355,-8.489969253540039,26.33
11,266,-0.003195842495188,0.041545946151018,-0.007456964813173,-0.828406453132629,-1.872294425964355,-8.518699645996093,26.32
11,267,-0.004261123016477,0.041545946151018,-0.006391684990376,-0.857137262821198,-1.833986520767212,-8.547430038452148,26.32
11,268,-0.005326403304935,0.041545946151018,-0.007456964813173,-0.852348804473877,-1.853140473365784,-8.528276443481445,26.34
11,269,-0.005326403304935,0.041545946151018,-0.007456964813173,-0.852348804473877,-1.853140473365784,-8.528276443481445,26.34
11,270,-0.004261123016477,0.040480665862560,-0.006391684990376,-0.809252500534058,-1.877082824707031,-8.576161384582519,26.33
11,271,-0.004261123016477,0.041545946151018,-0.006391684990376,-0.857137262821198,-1.862717270851135,-8.470814704895019,26.33
11,272,-0.004261123016477,0.041545946151018,-0.006391684990376,-0.847560346126556,-1.843563318252563,-8.537853240966796,26.33
11,273,-0.005326403304935,0.042611226439476,-0.006391684990376,-0.794887065887451,-1.905813574790954,-8.470814704895019,26.33
11,274,-0.004261123016477,0.041545946151018,-0.006391684990376,-0.866714239120483,-1.833986520767212,-8.571372985839843,26.33
11,275,-0.005326403304935,0.041545946151018,-0.006391684990376,-0.823617935180664,-1.843563318252563,-8.528276443481445,26.33
11,276,-0.005326403304935,0.041545946151018,-0.006391684990376,-0.823617935180664,-1.843563318252563,-8.528276443481445,26.33
11,277,-0.005326403304935,0.042611226439476,-0.006391684990376,-0.861925780773163,-1.877082824707031,-8.547430038452148,26.34
11,278,-0.003195842495188,0.041545946151018,-0.005326403304935,-0.866714239120483,-1.877082824707031,-8.485180854797363,26.34
11,279,-0.004261123016477,0.042611226439476,-0.006391684990376,-0.871502697467804,-1.867505788803100,-8.509122848510742,26.33
11,280,-0.004261123016477,0.040480665862560,-0.006391684990376,-0.833194911479950,-1.862717270851135,-8.533064842224121,26.33
11,281,-0.003195842495188,0.041545946151018,-0.006391684990376,-0.842771828174591,-1.867505788803100,-8.561796188354492,26.33
11,282,-0.004261123016477,0.042611226439476,-0.006391684990376,-0.866714239120483,-1.857928872108459,-8.489969253540039,26.33
11,283,-0.004261123016477,0.041545946151018,-0.006391684990376,-0.847560346126556,-1.881871223449707,-8.542641639709472,26.34
11,284,-0.005326403304935,0.041545946151018,-0.006391684990376,-0.804464042186737,-1.824409484863281,-8.494757652282714,26.33
11,285,-0.005326403304935,0.040480665862560,-0.006391684990376,-0.814041018486023,-1.853140473365784,-8.489969253540039,26.35
11,286,-0.005326403304935,0.043676510453224,-0.007456964813173,-0.833194911479950,-1.838774919509888,-8.523488044738769,26.33
11,287,-0.004261123016477,0.041545946151018,-0.006391684990376,-0.871502697467804,-1.853140473365784,-8.504334449768066,26.33
11,288,-0.005326403304935,0.041545946151018,-0.005326403304935,-0.837983369827271,-1.824409484863281,-8.600103378295898,26.33
11,289,-0.004261123016477,0.040480665862560,-0.006391684990376,-0.814041018486023,-1.853140473365784,-8.561796188354492,26.33
11,290,-0.004261123016477,0.040480665862560,-0.007456964813173,-0.823617935180664,-1.867505788803100,-8.542641639709472,26.33
11,291,-0.004261123016477,0.040480665862560,-0.007456964813173,-0.823617935180664,-1.867505788803100,-8.542641639709472,26.33
11,292,-0.005326403304935,0.042611226439476,-0.006391684990376,-0.823617935180664,-1.877082824707031,-8.470814704895019,26.32
11,293,-0.006391684990376,0.041545946151018,-0.006391684990376,-0.847560346126556,-1.829198002815246,-8.485180854797363,26.33
11,294,-0.005326403304935,0.040480665862560,-0.006391684990376,-0.857137262821198,-1.862717270851135,-8.509122848510742,26.32
11,295,-0.006391684990376,0.042611226439476,-0.007456964813173,-0.828406453132629,-1.833986520767212,-8.494757652282714,26.35
11,296,-0.003195842495188,0.041545946151018,-0.006391684990376,-0.861925780773163,-1.843563318252563,-8.537853240966796,26.34
11,297,-0.006391684990376,0.042611226439476,-0.006391684990376,-0.837983369827271,-1.843563318252563,-8.542641639709472,26.33
11,298,-0.006391684990376,0.042611226439476,-0.006391684990376,-0.837983369827271,-1.843563318252563,-8.542641639709472,26.33
11,299,-0.004261123016477,0.042611226439476,-0.006391684990376,-0.909810543060303,-1.862717270851135,-8.533064842224121,26.32
11,300,-0.004261123016477,0.041545946151018,-0.007456964813173,-0.900233566761017,-1.872294425964355,-8.542641639709472,26.33
11,301,-0.004261123016477,0.041545946151018,-0.006391684990376,-0.823617935180664,-1.838774919509888,-8.513911247253417,26.31
11,302,-0.005326403304935,0.041545946151018,-0.006391684990376,-0.857137262821198,-1.901025056838989,-8.571372985839843,26.34
11,303,-0.005326403304935,0.040480665862560,-0.007456964813173,-0.804464042186737,-1.867505788803100,-8.494757652282714,26.34
11,304,-0.006391684990376,0.041545946151018,-0.006391684990376,-0.837983369827271,-1.867505788803100,-8.576161384582519,26.33
11,305,-0.005326403304935,0.041545946151018,-0.006391684990376,-0.866714239120483,-1.891448259353638,-8.509122848510742,26.35
11,306,-0.005326403304935,0.041545946151018,-0.006391684990376,-0.866714239120483,-1.891448259353638,-8.509122848510742,26.35
11,307,-0.004261123016477,0.041545946151018,-0.005326403304935,-0.857137262821198,-1.867505788803100,-8.513911247253417,26.34
11,308,-0.005326403304935,0.041545946151018,-0.005326403304935,-0.818829476833344,-1.838774919509888,-8.475603103637695,26.31
11,309,-0.004261123016477,0.040480665862560,-0.006391684990376,-0.837983369827271,-1.833986520767212,-8.509122848510742,26.33
11,310,-0.005326403304935,0.041545946151018,-0.005326403304935,-0.857137262821198,-1.881871223449707,-8.509122848510742,26.32
11,311,-0.004261123016477,0.042611226439476,-0.007456964813173,-0.828406453132629,-1.877082824707031,-8.557006835937500,26.31
11,312,-0.004261123016477,0.041545946151018,-0.006391684990376,-0.857137262821198,-1.857928872108459,-8.542641639709472,26.33
11,313,-0.004261123016477,0.041545946151018,-0.006391684990376,-0.857137262821198,-1.857928872108459,-8.542641639709472,26.33
11,314,-0.004261123016477,0.041545946151018,-0.007456964813173,-0.871502697467804,-1.829198002815246,-8.580949783325195,26.34
11,315,-0.003195842495188,0.040480665862560,-0.006391684990376,-0.837983369827271,-1.862717270851135,-8.485180854797363,26.33
11,316,-0.004261123016477,0.041545946151018,-0.007456964813173,-0.818829476833344,-1.867505788803100,-8.547430038452148,26.33
11,317,-0.004261123016477,0.042611226439476,-0.005326403304935,-0.837983369827271,-1.843563318252563,-8.585738182067871,26.30
11,318,-0.004261123016477,0.041545946151018,-0.006391684990376,-0.842771828174591,-1.857928872108459,-8.513911247253417,26.30
11,319,-0.003195842495188,0.040480665862560,-0.004261123016477,-0.852348804473877,-1.857928872108459,-8.494757652282714,26.34
11,320,-0.003195842495188,0.040480665862560,-0.004261123016477,-0.852348804473877,-1.857928872108459,-8.494757652282714,26.34
11,321,-0.004261123016477,0.042611226439476,-0.006391684990376,-0.842771828174591,-1.862717270851135,-8.528276443481445,26.33
11,322,-0.004261123016477,0.041545946151018,-0.006391684990376,-0.871502697467804,-1.833986520767212,-8.523488044738769,26.34
11,323,-0.005326403304935,0.041545946151018,-0.005326403304935,-0.837983369827271,-1.877082824707031,-8.480391502380371,26.31
11,324,-0.005326403304935,0.041545946151018,-0.006391684990376,-0.818829476833344,-1.848351955413818,-8.585738182067871,26.33
11,325,-0.004261123016477,0.041545946151018,-0.005326403304935,-0.842771828174591,-1.901025056838989,-8.470814704895019,26.33
11,326,-0.004261123016477,0.042611226439476,-0.006391684990376,-0.842771828174591,-1.857928872108459,-8.557006835937500,26.33
11,327,-0.004261123016477,0.041545946151018,-0.007456964813173,-0.785310149192810,-1.877082824707031,-8.518699645996093,26.33
11,328,-0.004261123016477,0.041545946151018,-0.007456964813173,-0.785310149192810,-1.877082824707031,-8.518699645996093,26.33
11,329,-0.005326403304935,0.041545946151018,-0.006391684990376,-0.852348804473877,-1.867505788803100,-8.561796188354492,26.32
11,330,-0.002130561508238,0.041545946151018,-0.006391684990376,-0.809252500534058,-1.877082824707031,-8.489969253540039,26.34
11,331,-0.004261123016477,0.041545946151018,-0.006391684990376,-0.852348804473877,-1.857928872108459,-8.590526580810546,26.34
11,332,-0.005326403304935,0.041545946151018,-0.006391684990376,-0.828406453132629,-1.877082824707031,-8.489969253540039,26.32
11,333,-0.004261123016477,0.040480665862560,-0.007456964813173,-0.847560346126556,-1.867505788803100,-8.518699645996093,26.34
11,334,-0.005326403304935,0.040480665862560,-0.005326403304935,-0.866714239120483,-1.795678734779358,-8.499546051025390,26.32
11,335,-0.005326403304935,0.040480665862560,-0.005326403304935,-0.866714239120483,-1.795678734779358,-8.499546051025390,26.32
11,336,-0.005326403304935,0.040480665862560,-0.005326403304935,-0.837983369827271,-1.829198002815246,-8.513911247253417,26.31
11,337,-0.004261123016477,0.041545946151018,-0.006391684990376,-0.837983369827271,-1.853140473365784,-8.590526580810546,26.33
11,338,-0.004261123016477,0.042611226439476,-0.007456964813173,-0.814041018486023,-1.805255532264709,-8.513911247253417,26.33
11,339,-0.004261123016477,0.041545946151018,-0.007456964813173,-0.876291215419769,-1.862717270851135,-8.480391502380371,26.33
11,340,-0.005326403304935,0.041545946151018,-0.006391684990376,-0.833194911479950,-1.853140473365784,-8.523488044738769,26.34
11,341,-0.003195842495188,0.040480665862560,-0.007456964813173,-0.871502697467804,-1.881871223449707,-8.537853240966796,26.34
11,342,-0.004261123016477,0.042611226439476,-0.006391684990376,-0.861925780773163,-1.877082824707031,-8.528276443481445,26.34
11,343,-0.003195842495188,0.042611226439476,-0.005326403304935,-0.881079673767090,-1.872294425964355,-8.604892730712890,26.33
11,344,-0.004261123016477,0.041545946151018,-0.006391684990376,-0.857137262821198,-1.891448259353638,-8.547430038452148,26.33
11,345,-0.003195842495188,0.041545946151018,-0.006391684990376,-0.828406453132629,-1.872294425964355,-8.475603103637695,26.33
11,346,-0.004261123016477,0.041545946151018,-0.007456964813173,-0.814041018486023,-1.867505788803100,-8.528276443481445,26.33
11,347,-0.005326403304935,0.041545946151018,-0.006391684990376,-0.861925780773163,-1.857928872108459,-8.557006835937500,26.34
11,348,-0.004261123016477,0.041545946151018,-0.007456964813173,-0.823617935180664,-1.867505788803100,-8.595314979553222,26.32
11,349,-0.005326403304935,0.041545946151018,-0.006391684990376,-0.871502697467804,-1.838774919509888,-8.533064842224121,26.34
11,350,-0.005326403304935,0.041545946151018,-0.006391684990376,-0.871502697467804,-1.838774919509888,-8.533064842224121,26.34
11,351,-0.005326403304935,0.042611226439476,-0.007456964813173,-0.833194911479950,-1.891448259353638,-8.494757652282714,26.34
11,352,-0.004261123016477,0.041545946151018,-0.006391684990376,-0.837983369827271,-1.862717270851135,-8.571372985839843,26.33
11,353,-0.004261123016477,0.042611226439476,-0.005326403304935,-0.842771828174591,-1.877082824707031,-8.442083358764648,26.32
11,354,-0.004261123016477,0.040480665862560,-0.006391684990376,-0.847560346126556,-1.862717270851135,-8.566584587097167,26.31
11,355,-0.004261123016477,0.041545946151018,-0.006391684990376,-0.847560346126556,-1.862717270851135,-8.480391502380371,26.33
11,356,-0.004261123016477,0.040480665862560,-0.007456964813173,-0.861925780773163,-1.886659741401672,-8.513911247253417,26.32
11,357,-0.004261123016477,0.040480665862560,-0.007456964813173,-0.861925780773163,-1.886659741401672,-8.513911247253417,26.32
11,358,-0.005326403304935,0.041545946151018,-0.006391684990376,-0.814041018486023,-1.848351955413818,-8.504334449768066,26.33
11,359,-0.005326403304935,0.042611226439476,-0.007456964813173,-0.861925780773163,-1.838774919509888,-8.523488044738769,26.32
11,360,-0.005326403304935,0.040480665862560,-0.005326403304935,-0.828406453132629,-1.877082824707031,-8.494757652282714,26.34
11,361,-0.003195842495188,0.041545946151018,-0.005326403304935,-0.866714239120483,-1.867505788803100,-8.547430038452148,26.33
11,362,-0.004261123016477,0.041545946151018,-0.006391684990376,-0.847560346126556,-1.829198002815246,-8.518699645996093,26.33
11,363,-0.004261123016477,0.040480665862560,-0.006391684990376,-0.809252500534058,-1.848351955413818,-8.528276443481445,26.35
11,364,-0.005326403304935,0.042611226439476,-0.007456964813173,-0.828406453132629,-1.881871223449707,-8.537853240966796,26.33
11,365,-0.005326403304935,0.042611226439476,-0.007456964813173,-0.828406453132629,-1.881871223449707,-8.537853240966796,26.33
11,366,-0.004261123016477,0.041545946151018,-0.007456964813173,-0.833194911479950,-1.862717270851135,-8.552218437194824,26.34
11,367,-0.004261123016477,0.040480665862560,-0.006391684990376,-0.847560346126556,-1.843563318252563,-8.518699645996093,26.32
11,368,-0.004261123016477,0.041545946151018,-0.006391684990376,-0.852348804473877,-1.819621086120605,-8.566584587097167,26.33
11,369,-0.004261123016477,0.040480665862560,-0.005326403304935,-0.852348804473877,-1.848351955413818,-8.499546051025390,26.31
11,370,-0.005326403304935,0.042611226439476,-0.007456964813173,-0.809252500534058,-1.867505788803100,-8.466026306152343,26.33
11,371,-0.004261123016477,0.041545946151018,-0.006391684990376,-0.833194911479950,-1.867505788803100,-8.523488044738769,26.32
11,372,-0.004261123016477,0.041545946151018,-0.006391684990376,-0.833194911479950,-1.867505788803100,-8.523488044738769,26.32
11,373,-0.005326403304935,0.041545946151018,-0.007456964813173,-0.828406453132629,-1.848351955413818,-8.533064842224121,26.33
11,374,-0.004261123016477,0.041545946151018,-0.006391684990376,-0.842771828174591,-1.877082824707031,-8.537853240966796,26.34
11,375,-0.004261123016477,0.041545946151018,-0.005326403304935,-0.842771828174591,-1.862717270851135,-8.504334449768066,26.33
11,376,-0.004261123016477,0.040480665862560,-0.007456964813173,-0.842771828174591,-1.857928872108459,-8.518699645996093,26.32
11,377,-0.006391684990376,0.042611226439476,-0.006391684990376,-0.857137262821198,-1.867505788803100,-8.466026306152343,26.30
11,378,-0.005326403304935,0.041545946151018,-0.006391684990376,-0.837983369827271,-1.867505788803100,-8.504334449768066,26.32
11,379,-0.004261123016477,0.041545946151018,-0.006391684990376,-0.857137262821198,-1.867505788803100,-8.566584587097167,26.33
11,380,-0.004261123016477,0.041545946151018,-0.006391684990376,-0.861925780773163,-1.877082824707031,-8.513911247253417,26.35
11,381,-0.003195842495188,0.040480665862560,-0.006391684990376,-0.818829476833344,-1.867505788803100,-8.518699645996093,26.34
11,382,-0.004261123016477,0.042611226439476,-0.007456964813173,-0.828406453132629,-1.853140473365784,-8.557006835937500,26.32
11,383,-0.004261123016477,0.041545946151018,-0.007456964813173,-0.823617935180664,-1.862717270851135,-8.494757652282714,26.34
11,384,-0.004261123016477,0.040480665862560,-0.006391684990376,-0.866714239120483,-1.886659741401672,-8.513911247253417,26.33
11,385,-0.004261123016477,0.040480665862560,-0.006391684990376,-0.828406453132629,-1.862717270851135,-8.604892730712890,26.32
11,386,-0.004261123016477,0.042611226439476,-0.005326403304935,-0.837983369827271,-1.872294425964355,-8.566584587097167,26.34
11,387,-0.004261123016477,0.042611226439476,-0.005326403304935,-0.837983369827271,-1.872294425964355,-8.566584587097167,26.34
11,388,-0.005326403304935,0.041545946151018,-0.007456964813173,-0.814041018486023,-1.867505788803100,-8.537853240966796,26.33
11,389,-0.003195842495188,0.041545946151018,-0.005326403304935,-0.833194911479950,-1.901025056838989,-8.494757652282714,26.34
11,390,-0.005326403304935,0.042611226439476,-0.007456964813173,-0.837983369827271,-1.877082824707031,-8.446871757507324,26.33
11,391,-0.004261123016477,0.041545946151018,-0.006391684990376,-0.794887065887451,-1.867505788803100,-8.518699645996093,26.32
11,392,-0.005326403304935,0.040480665862560,-0.005326403304935,-0.847560346126556,-1.857928872108459,-8.561796188354492,26.32
11,393,-0.004261123016477,0.040480665862560,-0.005326403304935,-0.833194911479950,-1.877082824707031,-8.518699645996093,26.32
11,394,-0.004261123016477,0.040480665862560,-0.005326403304935,-0.833194911479950,-1.877082824707031,-8.518699645996093,26.32
11,395,-0.005326403304935,0.042611226439476,-0.007456964813173,-0.828406453132629,-1.843563318252563,-8.509122848510742,26.32
11,396,-0.005326403304935,0.042611226439476,-0.006391684990376,-0.818829476833344,-1.829198002815246,-8.533064842224121,26.34
11,397,-0.005326403304935,0.041545946151018,-0.007456964813173,-0.861925780773163,-1.867505788803100,-8.499546051025390,26.34
11,398,-0.005326403304935,0.040480665862560,-0.006391684990376,-0.823617935180664,-1.872294425964355,-8.523488044738769,26.33
11,399,-0.005326403304935,0.041545946151018,-0.006391684990376,-0.794887065887451,-1.867505788803100,-8.585738182067871,26.34
11,400,-0.003195842495188,0.041545946151018,-0.006391684990376,-0.852348804473877,-1.857928872108459,-8.542641639709472,26.34
11,401,-0.004261123016477,0.041545946151018,-0.006391684990376,-0.814041018486023,-1.833986520767212,-8.585738182067871,26.33
11,402,-0.003195842495188,0.041545946151018,-0.005326403304935,-0.881079673767090,-1.886659741401672,-8.542641639709472,26.33
11,403,-0.005326403304935,0.040480665862560,-0.006391684990376,-0.809252500534058,-1.857928872108459,-8.542641639709472,26.33
11,404,-0.004261123016477,0.041545946151018,-0.006391684990376,-0.861925780773163,-1.867505788803100,-8.494757652282714,26.34
11,405,-0.005326403304935,0.040480665862560,-0.006391684990376,-0.842771828174591,-1.881871223449707,-8.451661109924316,26.33
11,406,-0.004261123016477,0.040480665862560,-0.005326403304935,-0.828406453132629,-1.886659741401672,-8.489969253540039,26.33
11,407,-0.003195842495188,0.041545946151018,-0.007456964813173,-0.847560346126556,-1.905813574790954,-8.537853240966796,26.32
11,408,-0.005326403304935,0.041545946151018,-0.006391684990376,-0.857137262821198,-1.838774919509888,-8.518699645996093,26.35
11,409,-0.005326403304935,0.041545946151018,-0.006391684990376,-0.857137262821198,-1.838774919509888,-8.518699645996093,26.35
11,410,-0.006391684990376,0.040480665862560,-0.005326403304935,-0.852348804473877,-1.867505788803100,-8.504334449768066,26.33
11,411,-0.005326403304935,0.041545946151018,-0.005326403304935,-0.861925780773163,-1.857928872108459,-8.489969253540039,26.34
11,412,-0.005326403304935,0.040480665862560,-0.007456964813173,-0.861925780773163,-1.857928872108459,-8.489969253540039,26.35
11,413,-0.003195842495188,0.041545946151018,-0.006391684990376,-0.823617935180664,-1.872294425964355,-8.571372985839843,26.35
11,414,-0.005326403304935,0.041545946151018,-0.006391684990376,-0.852348804473877,-1.867505788803100,-8.547430038452148,26.33
11,415,-0.002130561508238,0.041545946151018,-0.006391684990376,-0.847560346126556,-1.843563318252563,-8.518699645996093,26.34
11,416,-0.002130561508238,0.041545946151018,-0.006391684990376,-0.847560346126556,-1.843563318252563,-8.518699645996093,26.34
11,417,-0.005326403304935,0.042611226439476,-0.007456964813173,-0.828406453132629,-1.848351955413818,-8.461237907409667,26.34
11,418,-0.005326403304935,0.042611226439476,-0.005326403304935,-0.852348804473877,-1.829198002815246,-8.518699645996093,26.32
11,419,-0.005326403304935,0.041545946151018,-0.007456964813173,-0.866714239120483,-1.838774919509888,-8.542641639709472,26.33
11,420,-0.005326403304935,0.042611226439476,-0.007456964813173,-0.871502697467804,-1.872294425964355,-8.475603103637695,26.33
11,421,-0.004261123016477,0.041545946151018,-0.007456964813173,-0.837983369827271,-1.843563318252563,-8.571372985839843,26.32
11,422,-0.004261123016477,0.041545946151018,-0.007456964813173,-0.823617935180664,-1.872294425964355,-8.494757652282714,26.33
11,423,-0.003195842495188,0.041545946151018,-0.006391684990376,-0.828406453132629,-1.867505788803100,-8.513911247253417,26.35
11,424,-0.003195842495188,0.041545946151018,-0.006391684990376,-0.828406453132629,-1.867505788803100,-8.513911247253417,26.35
11,425,-0.005326403304935,0.041545946151018,-0.005326403304935,-0.828406453132629,-1.848351955413818,-8.504334449768066,26.33
11,426,-0.004261123016477,0.040480665862560,-0.007456964813173,-0.833194911479950,-1.881871223449707,-8.485180854797363,26.33
11,427,-0.004261123016477,0.040480665862560,-0.006391684990376,-0.837983369827271,-1.881871223449707,-8.518699645996093,26.33
11,428,-0.005326403304935,0.041545946151018,-0.005326403304935,-0.881079673767090,-1.843563318252563,-8.571372985839843,26.31
11,429,-0.005326403304935,0.041545946151018,-0.006391684990376,-0.823617935180664,-1.848351955413818,-8.533064842224121,26.34
11,430,-0.004261123016477,0.040480665862560,-0.008522246032953,-0.833194911479950,-1.886659741401672,-8.499546051025390,26.34
11,431,-0.004261123016477,0.040480665862560,-0.008522246032953,-0.833194911479950,-1.886659741401672,-8.499546051025390,26.34
11,432,-0.005326403304935,0.041545946151018,-0.006391684990376,-0.876291215419769,-1.853140473365784,-8.489969253540039,26.34
11,433,-0.003195842495188,0.041545946151018,-0.006391684990376,-0.828406453132629,-1.853140473365784,-8.480391502380371,26.33
11,434,-0.003195842495188,0.041545946151018,-0.006391684990376,-0.857137262821198,-1.853140473365784,-8.561796188354492,26.35
11,435,-0.004261123016477,0.041545946151018,-0.007456964813173,-0.833194911479950,-1.857928872108459,-8.576161384582519,26.33
11,436,-0.004261123016477,0.041545946151018,-0.007456964813173,-0.871502697467804,-1.886659741401672,-8.547430038452148,26.33
11,437,-0.005326403304935,0.040480665862560,-0.006391684990376,-0.861925780773163,-1.877082824707031,-8.537853240966796,26.32
11,438,-0.005326403304935,0.040480665862560,-0.006391684990376,-0.861925780773163,-1.877082824707031,-8.537853240966796,26.32
11,439,-0.004261123016477,0.041545946151018,-0.005326403304935,-0.847560346126556,-1.867505788803100,-8.456449508666992,26.32
11,440,-0.004261123016477,0.042611226439476,-0.006391684990376,-0.852348804473877,-1.833986520767212,-8.494757652282714,26.33
11,441,-0.005326403304935,0.040480665862560,-0.007456964813173,-0.799675583839417,-1.862717270851135,-8.561796188354492,26.34
11,442,-0.004261123016477,0.041545946151018,-0.005326403304935,-0.823617935180664,-1.843563318252563,-8.509122848510742,26.35
11,443,-0.003195842495188,0.040480665862560,-0.006391684990376,-0.857137262821198,-1.910602211952209,-8.552218437194824,26.33
11,444,-0.005326403304935,0.041545946151018,-0.006391684990376,-0.876291215419769,-1.881871223449707,-8.566584587097167,26.34
11,445,-0.005326403304935,0.041545946151018,-0.006391684990376,-0.852348804473877,-1.872294425964355,-8.533064842224121,26.32
11,446,-0.005326403304935,0.041545946151018,-0.006391684990376,-0.852348804473877,-1.872294425964355,-8.533064842224121,26.32
11,447,-0.004261123016477,0.041545946151018,-0.006391684990376,-0.881079673767090,-1.829198002815246,-8.533064842224121,26.35
11,448,-0.005326403304935,0.040480665862560,-0.005326403304935,-0.847560346126556,-1.853140473365784,-8.557006835937500,26.33
11,449,-0.004261123016477,0.041545946151018,-0.005326403304935,-0.828406453132629,-1.833986520767212,-8.513911247253417,26.33
11,450,-0.005326403304935,0.041545946151018,-0.005326403304935,-0.833194911479950,-1.896236658096313,-8.533064842224121,26.33
11,451,-0.004261123016477,0.041545946151018,-0.005326403304935,-0.866714239120483,-1.877082824707031,-8.547430038452148,26.33
11,452,-0.004261123016477,0.041545946151018,-0.007456964813173,-0.885868132114410,-1.848351955413818,-8.509122848510742,26.33
11,453,-0.004261123016477,0.041545946151018,-0.007456964813173,-0.885868132114410,-1.848351955413818,-8.509122848510742,26.33
11,454,-0.005326403304935,0.041545946151018,-0.008522246032953,-0.852348804473877,-1.905813574790954,-8.547430038452148,26.33
11,455,-0.005326403304935,0.040480665862560,-0.007456964813173,-0.794887065887451,-1.853140473365784,-8.561796188354492,26.33
11,456,-0.004261123016477,0.041545946151018,-0.006391684990376,-0.837983369827271,-1.877082824707031,-8.552218437194824,26.34
11,457,-0.005326403304935,0.041545946151018,-0.006391684990376,-0.837983369827271,-1.872294425964355,-8.561796188354492,26.33
11,458,-0.004261123016477,0.040480665862560,-0.005326403304935,-0.837983369827271,-1.910602211952209,-8.533064842224121,26.32
11,459,-0.003195842495188,0.041545946151018,-0.006391684990376,-0.842771828174591,-1.848351955413818,-8.523488044738769,26.31
11,460,-0.004261123016477,0.040480665862560,-0.008522246032953,-0.842771828174591,-1.843563318252563,-8.557006835937500,26.31
11,461,-0.005326403304935,0.041545946151018,-0.006391684990376,-0.833194911479950,-1.872294425964355,-8.499546051025390,26.34
11,462,-0.004261123016477,0.040480665862560,-0.006391684990376,-0.881079673767090,-1.853140473365784,-8.619257926940917,26.35
11,463,-0.004261123016477,0.041545946151018,-0.006391684990376,-0.814041018486023,-1.877082824707031,-8.523488044738769,26.32
11,464,-0.005326403304935,0.041545946151018,-0.006391684990376,-0.828406453132629,-1.824409484863281,-8.566584587097167,26.32
11,465,-0.006391684990376,0.041545946151018,-0.006391684990376,-0.794887065887451,-1.867505788803100,-8.542641639709472,26.30
11,466,-0.005326403304935,0.040480665862560,-0.006391684990376,-0.842771828174591,-1.881871223449707,-8.566584587097167,26.34
11,467,-0.003195842495188,0.041545946151018,-0.006391684990376,-0.833194911479950,-1.872294425964355,-8.509122848510742,26.33
11,468,-0.003195842495188,0.041545946151018,-0.006391684990376,-0.833194911479950,-1.872294425964355,-8.509122848510742,26.33
11,469,-0.004261123016477,0.041545946151018,-0.006391684990376,-0.852348804473877,-1.877082824707031,-8.470814704895019,26.34
11,470,-0.004261123016477,0.042611226439476,-0.008522246032953,-0.828406453132629,-1.872294425964355,-8.537853240966796,26.33
11,471,-0.004261123016477,0.041545946151018,-0.005326403304935,-0.890656650066376,-1.853140473365784,-8.509122848510742,26.33
11,472,-0.006391684990376,0.042611226439476,-0.005326403304935,-0.833194911479950,-1.877082824707031,-8.499546051025390,26.32
11,473,-0.005326403304935,0.041545946151018,-0.006391684990376,-0.814041018486023,-1.896236658096313,-8.571372985839843,26.35
11,474,-0.006391684990376,0.041545946151018,-0.006391684990376,-0.842771828174591,-1.881871223449707,-8.513911247253417,26.32
11,475,-0.006391684990376,0.041545946151018,-0.006391684990376,-0.842771828174591,-1.881871223449707,-8.513911247253417,26.32
11,476,-0.005326403304935,0.041545946151018,-0.006391684990376,-0.861925780773163,-1.920179009437561,-8.595314979553222,26.34
11,477,-0.004261123016477,0.041545946151018,-0.006391684990376,-0.857137262821198,-1.891448259353638,-8.489969253540039,26.33
11,478,-0.004261123016477,0.040480665862560,-0.005326403304935,-0.837983369827271,-1.857928872108459,-8.480391502380371,26.33
11,479,-0.005326403304935,0.041545946151018,-0.006391684990376,-0.876291215419769,-1.872294425964355,-8.590526580810546,26.36
11,480,-0.004261123016477,0.041545946151018,-0.005326403304935,-0.847560346126556,-1.857928872108459,-8.537853240966796,26.34
11,481,-0.004261123016477,0.041545946151018,-0.007456964813173,-0.823617935180664,-1.891448259353638,-8.451661109924316,26.34
11,482,-0.005326403304935,0.041545946151018,-0.005326403304935,-0.804464042186737,-1.857928872108459,-8.442083358764648,26.33
11,483,-0.005326403304935,0.041545946151018,-0.005326403304935,-0.804464042186737,-1.857928872108459,-8.442083358764648,26.33
11,484,-0.003195842495188,0.040480665862560,-0.006391684990376,-0.861925780773163,-1.862717270851135,-8.494757652282714,26.33
11,485,-0.005326403304935,0.041545946151018,-0.007456964813173,-0.857137262821198,-1.881871223449707,-8.576161384582519,26.33
11,486,-0.003195842495188,0.040480665862560,-0.007456964813173,-0.876291215419769,-1.877082824707031,-8.513911247253417,26.34
11,487,-0.004261123016477,0.041545946151018,-0.006391684990376,-0.852348804473877,-1.881871223449707,-8.528276443481445,26.33
11,488,-0.005326403304935,0.041545946151018,-0.006391684990376,-0.828406453132629,-1.838774919509888,-8.509122848510742,26.33
11,489,-0.005326403304935,0.042611226439476,-0.006391684990376,-0.861925780773163,-1.896236658096313,-8.499546051025390,26.33
11,490,-0.005326403304935,0.042611226439476,-0.006391684990376,-0.861925780773163,-1.896236658096313,-8.499546051025390,26.33
11,491,-0.004261123016477,0.040480665862560,-0.005326403304935,-0.814041018486023,-1.881871223449707,-8.585738182067871,26.33
11,492,-0.004261123016477,0.040480665862560,-0.006391684990376,-0.852348804473877,-1.872294425964355,-8.513911247253417,26.34
11,493,-0.006391684990376,0.041545946151018,-0.005326403304935,-0.852348804473877,-1.881871223449707,-8.557006835937500,26.34
11,494,-0.004261123016477,0.042611226439476,-0.007456964813173,-0.828406453132629,-1.881871223449707,-8.547430038452148,26.34
11,495,-0.004261123016477,0.041545946151018,-0.006391684990376,-0.842771828174591,-1.853140473365784,-8.485180854797363,26.34
11,496,-0.005326403304935,0.041545946151018,-0.006391684990376,-0.814041018486023,-1.805255532264709,-8.523488044738769,26.32
11,497,-0.005326403304935,0.040480665862560,-0.007456964813173,-0.881079673767090,-1.829198002815246,-8.485180854797363,26.33
11,498,-0.005326403304935,0.040480665862560,-0.007456964813173,-0.881079673767090,-1.829198002815246,-8.485180854797363,26.33
11,499,-0.003195842495188,0.040480665862560,-0.006391684990376,-0.861925780773163,-1.838774919509888,-8.499546051025390,26.33
11,500,-0.004261123016477,0.041545946151018,-0.006391684990376,-0.833194911479950,-1.843563318252563,-8.446871757507324,26.34
11,501,-0.005326403304935,0.041545946151018,-0.006391684990376,-0.847560346126556,-1.891448259353638,-8.547430038452148,26.34
11,502,-0.005326403304935,0.040480665862560,-0.007456964813173,-0.847560346126556,-1.872294425964355,-8.475603103637695,26.33
11,503,-0.006391684990376,0.041545946151018,-0.006391684990376,-0.842771828174591,-1.853140473365784,-8.547430038452148,26.33
11,504,-0.004261123016477,0.042611226439476,-0.007456964813173,-0.861925780773163,-1.872294425964355,-8.557006835937500,26.33
11,505,-0.004261123016477,0.042611226439476,-0.007456964813173,-0.861925780773163,-1.872294425964355,-8.557006835937500,26.33
11,506,-0.005326403304935,0.042611226439476,-0.006391684990376,-0.837983369827271,-1.848351955413818,-8.561796188354492,26.34
11,507,-0.005326403304935,0.042611226439476,-0.006391684990376,-0.837983369827271,-1.877082824707031,-8.513911247253417,26.34
11,508,-0.004261123016477,0.041545946151018,-0.007456964813173,-0.814041018486023,-1.891448259353638,-8.509122848510742,26.33
11,509,-0.004261123016477,0.041545946151018,-0.005326403304935,-0.857137262821198,-1.896236658096313,-8.523488044738769,26.33
11,510,-0.004261123016477,0.042611226439476,-0.006391684990376,-0.847560346126556,-1.853140473365784,-8.475603103637695,26.35
11,511,-0.004261123016477,0.042611226439476,-0.005326403304935,-0.866714239120483,-1.810044050216675,-8.552218437194824,26.33
11,512,-0.004261123016477,0.042611226439476,-0.005326403304935,-0.866714239120483,-1.810044050216675,-8.552218437194824,26.33
11,513,-0.006391684990376,0.041545946151018,-0.007456964813173,-0.818829476833344,-1.838774919509888,-8.480391502380371,26.35
11,514,-0.004261123016477,0.040480665862560,-0.005326403304935,-0.837983369827271,-1.872294425964355,-8.590526580810546,26.32
11,515,-0.004261123016477,0.041545946151018,-0.006391684990376,-0.814041018486023,-1.862717270851135,-8.571372985839843,26.35
11,516,-0.004261123016477,0.040480665862560,-0.004261123016477,-0.842771828174591,-1.838774919509888,-8.528276443481445,26.33
11,517,-0.004261123016477,0.041545946151018,-0.006391684990376,-0.847560346126556,-1.886659741401672,-8.533064842224121,26.33
11,518,-0.004261123016477,0.041545946151018,-0.006391684990376,-0.823617935180664,-1.838774919509888,-8.504334449768066,26.34
11,519,-0.004261123016477,0.041545946151018,-0.007456964813173,-0.857137262821198,-1.881871223449707,-8.518699645996093,26.32
11,520,-0.004261123016477,0.041545946151018,-0.007456964813173,-0.857137262821198,-1.881871223449707,-8.518699645996093,26.32
11,521,-0.004261123016477,0.040480665862560,-0.006391684990376,-0.828406453132629,-1.862717270851135,-8.528276443481445,26.34
11,522,-0.003195842495188,0.041545946151018,-0.006391684990376,-0.809252500534058,-1.948909997940063,-8.533064842224121,26.35
11,523,-0.004261123016477,0.041545946151018,-0.007456964813173,-0.842771828174591,-1.848351955413818,-8.552218437194824,26.32
11,524,-0.006391684990376,0.041545946151018,-0.007456964813173,-0.818829476833344,-1.848351955413818,-8.475603103637695,26.33
11,525,-0.003195842495188,0.040480665862560,-0.005326403304935,-0.861925780773163,-1.867505788803100,-8.542641639709472,26.33
11,526,-0.005326403304935,0.042611226439476,-0.006391684990376,-0.833194911479950,-1.843563318252563,-8.513911247253417,26.34
11,527,-0.005326403304935,0.042611226439476,-0.006391684990376,-0.833194911479950,-1.843563318252563,-8.513911247253417,26.34
11,528,-0.004261123016477,0.041545946151018,-0.008522246032953,-0.785310149192810,-1.881871223449707,-8.494757652282714,26.34
11,529,-0.003195842495188,0.042611226439476,-0.006391684990376,-0.852348804473877,-1.862717270851135,-8.533064842224121,26.34
11,530,-0.005326403304935,0.041545946151018,-0.005326403304935,-0.842771828174591,-1.833986520767212,-8.528276443481445,26.34
11,531,-0.004261123016477,0.041545946151018,-0.007456964813173,-0.881079673767090,-1.853140473365784,-8.552218437194824,26.33
11,532,-0.003195842495188,0.041545946151018,-0.006391684990376,-0.852348804473877,-1.901025056838989,-8.451661109924316,26.33
11,533,-0.005326403304935,0.041545946151018,-0.005326403304935,-0.818829476833344,-1.867505788803100,-8.485180854797363,26.34
11,534,-0.005326403304935,0.041545946151018,-0.006391684990376,-0.809252500534058,-1.877082824707031,-8.537853240966796,26.34
11,535,-0.004261123016477,0.041545946151018,-0.005326403304935,-0.828406453132629,-1.891448259353638,-8.499546051025390,26.34
11,536,-0.005326403304935,0.041545946151018,-0.006391684990376,-0.847560346126556,-1.872294425964355,-8.576161384582519,26.33
11,537,-0.005326403304935,0.041545946151018,-0.007456964813173,-0.866714239120483,-1.886659741401672,-8.485180854797363,26.32
11,538,-0.004261123016477,0.041545946151018,-0.007456964813173,-0.823617935180664,-1.848351955413818,-8.499546051025390,26.35
11,539,-0.005326403304935,0.042611226439476,-0.006391684990376,-0.857137262821198,-1.881871223449707,-8.547430038452148,26.33
11,540,-0.004261123016477,0.041545946151018,-0.008522246032953,-0.828406453132629,-1.833986520767212,-8.552218437194824,26.33
11,541,-0.004261123016477,0.041545946151018,-0.005326403304935,-0.809252500534058,-1.886659741401672,-8.542641639709472,26.34
11,542,-0.004261123016477,0.041545946151018,-0.005326403304935,-0.809252500534058,-1.886659741401672,-8.542641639709472,26.34
11,543,-0.005326403304935,0.041545946151018,-0.007456964813173,-0.828406453132629,-1.867505788803100,-8.485180854797363,26.34
11,544,-0.004261123016477,0.041545946151018,-0.006391684990376,-0.861925780773163,-1.838774919509888,-8.499546051025390,26.33
11,545,-0.005326403304935,0.041545946151018,-0.006391684990376,-0.842771828174591,-1.881871223449707,-8.523488044738769,26.33
11,546,-0.004261123016477,0.041545946151018,-0.006391684990376,-0.857137262821198,-1.867505788803100,-8.509122848510742,26.34
11,547,-0.004261123016477,0.041545946151018,-0.006391684990376,-0.818829476833344,-1.877082824707031,-8.552218437194824,26.32
11,548,-0.002130561508238,0.041545946151018,-0.005326403304935,-0.823617935180664,-1.881871223449707,-8.518699645996093,26.33
11,549,-0.002130561508238,0.041545946151018,-0.005326403304935,-0.823617935180664,-1.881871223449707,-8.518699645996093,26.33
11,550,-0.005326403304935,0.041545946151018,-0.005326403304935,-0.823617935180664,-1.867505788803100,-8.489969253540039,26.33
11,551,-0.005326403304935,0.040480665862560,-0.007456964813173,-0.837983369827271,-1.853140473365784,-8.499546051025390,26.32
11,552,-0.005326403304935,0.042611226439476,-0.007456964813173,-0.823617935180664,-1.872294425964355,-8.513911247253417,26.32
11,553,-0.005326403304935,0.041545946151018,-0.006391684990376,-0.842771828174591,-1.891448259353638,-8.494757652282714,26.33
11,554,-0.005326403304935,0.041545946151018,-0.006391684990376,-0.828406453132629,-1.829198002815246,-8.480391502380371,26.34
11,555,-0.002130561508238,0.041545946151018,-0.007456964813173,-0.837983369827271,-1.862717270851135,-8.542641639709472,26.33
11,556,-0.004261123016477,0.041545946151018,-0.005326403304935,-0.833194911479950,-1.857928872108459,-8.513911247253417,26.35
11,557,-0.004261123016477,0.041545946151018,-0.005326403304935,-0.833194911479950,-1.857928872108459,-8.513911247253417,26.35
11,558,-0.005326403304935,0.041545946151018,-0.007456964813173,-0.847560346126556,-1.901025056838989,-8.537853240966796,26.32
11,559,-0.004261123016477,0.041545946151018,-0.005326403304935,-0.852348804473877,-1.872294425964355,-8.518699645996093,26.34
11,560,-0.005326403304935,0.041545946151018,-0.006391684990376,-0.828406453132629,-1.881871223449707,-8.552218437194824,26.33
11,561,-0.004261123016477,0.041545946151018,-0.006391684990376,-0.842771828174591,-1.910602211952209,-8.533064842224121,26.34
11,562,-0.005326403304935,0.041545946151018,-0.006391684990376,-0.833194911479950,-1.857928872108459,-8.504334449768066,26.33
11,563,-0.005326403304935,0.040480665862560,-0.006391684990376,-0.818829476833344,-1.891448259353638,-8.580949783325195,26.34
11,564,-0.005326403304935,0.040480665862560,-0.006391684990376,-0.818829476833344,-1.891448259353638,-8.580949783325195,26.34
11,565,-0.005326403304935,0.041545946151018,-0.006391684990376,-0.823617935180664,-1.833986520767212,-8.528276443481445,26.33
11,566,-0.003195842495188,0.040480665862560,-0.006391684990376,-0.871502697467804,-1.910602211952209,-8.552218437194824,26.34
11,567,-0.005326403304935,0.041545946151018,-0.006391684990376,-0.809252500534058,-1.853140473365784,-8.576161384582519,26.34
11,568,-0.003195842495188,0.041545946151018,-0.006391684990376,-0.866714239120483,-1.896236658096313,-8.547430038452148,26.34
11,569,-0.003195842495188,0.040480665862560,-0.006391684990376,-0.866714239120483,-1.857928872108459,-8.466026306152343,26.35
11,570,-0.005326403304935,0.041545946151018,-0.007456964813173,-0.852348804473877,-1.862717270851135,-8.504334449768066,26.33
11,571,-0.005326403304935,0.041545946151018,-0.007456964813173,-0.852348804473877,-1.862717270851135,-8.504334449768066,26.33
11,572,-0.004261123016477,0.041545946151018,-0.007456964813173,-0.809252500534058,-1.848351955413818,-8.552218437194824,26.33
11,573,-0.004261123016477,0.041545946151018,-0.007456964813173,-0.852348804473877,-1.862717270851135,-8.590526580810546,26.34
11,574,-0.004261123016477,0.041545946151018,-0.006391684990376,-0.823617935180664,-1.838774919509888,-8.466026306152343,26.33
11,575,-0.005326403304935,0.041545946151018,-0.006391684990376,-0.814041018486023,-1.867505788803100,-8.504334449768066,26.35
11,576,-0.006391684990376,0.041545946151018,-0.006391684990376,-0.852348804473877,-1.867505788803100,-8.523488044738769,26.34
11,577,-0.005326403304935,0.041545946151018,-0.006391684990376,-0.876291215419769,-1.862717270851135,-8.485180854797363,26.33
11,578,-0.004261123016477,0.041545946151018,-0.005326403304935,-0.842771828174591,-1.881871223449707,-8.499546051025390,26.32
11,579,-0.004261123016477,0.041545946151018,-0.005326403304935,-0.842771828174591,-1.881871223449707,-8.499546051025390,26.32
11,580,-0.004261123016477,0.041545946151018,-0.006391684990376,-0.837983369827271,-1.877082824707031,-8.509122848510742,26.34
11,581,-0.004261123016477,0.041545946151018,-0.006391684990376,-0.871502697467804,-1.891448259353638,-8.499546051025390,26.34
11,582,-0.004261123016477,0.041545946151018,-0.006391684990376,-0.842771828174591,-1.877082824707031,-8.489969253540039,26.33
11,583,-0.004261123016477,0.041545946151018,-0.004261123016477,-0.828406453132629,-1.891448259353638,-8.528276443481445,26.35
11,584,-0.005326403304935,0.041545946151018,-0.006391684990376,-0.852348804473877,-1.877082824707031,-8.480391502380371,26.34
11,585,-0.006391684990376,0.040480665862560,-0.004261123016477,-0.842771828174591,-1.886659741401672,-8.523488044738769,26.33
11,586,-0.006391684990376,0.040480665862560,-0.004261123016477,-0.842771828174591,-1.886659741401672,-8.523488044738769,26.33
11,587,-0.005326403304935,0.041545946151018,-0.006391684990376,-0.823617935180664,-1.819621086120605,-8.451661109924316,26.33
11,588,-0.005326403304935,0.041545946151018,-0.005326403304935,-0.852348804473877,-1.901025056838989,-8.504334449768066,26.33
11,589,-0.004261123016477,0.041545946151018,-0.006391684990376,-0.847560346126556,-1.833986520767212,-8.542641639709472,26.34
11,590,-0.005326403304935,0.041545946151018,-0.006391684990376,-0.828406453132629,-1.862717270851135,-8.513911247253417,26.33
11,591,-0.006391684990376,0.040480665862560,-0.005326403304935,-0.842771828174591,-1.867505788803100,-8.580949783325195,26.34
11,592,-0.004261123016477,0.041545946151018,-0.006391684990376,-0.837983369827271,-1.867505788803100,-8.504334449768066,26.35
11,593,-0.005326403304935,0.042611226439476,-0.005326403304935,-0.866714239120483,-1.896236658096313,-8.518699645996093,26.32
11,594,-0.004261123016477,0.041545946151018,-0.007456964813173,-0.837983369827271,-1.833986520767212,-8.528276443481445,26.34
11,595,-0.006391684990376,0.042611226439476,-0.007456964813173,-0.828406453132629,-1.886659741401672,-8.518699645996093,26.32
11,596,-0.005326403304935,0.040480665862560,-0.006391684990376,-0.871502697467804,-1.877082824707031,-8.571372985839843,26.34
11,597,-0.005326403304935,0.042611226439476,-0.006391684990376,-0.852348804473877,-1.877082824707031,-8.509122848510742,26.34
11,598,-0.005326403304935,0.040480665862560,-0.007456964813173,-0.828406453132629,-1.824409484863281,-8.470814704895019,26.33
11,599,-0.004261123016477,0.042611226439476,-0.006391684990376,-0.828406453132629,-1.886659741401672,-8.456449508666992,26.35
11,600,-0.004261123016477,0.041545946151018,-0.007456964813173,-0.852348804473877,-1.853140473365784,-8.566584587097167,26.35
11,601,-0.004261123016477,0.041545946151018,-0.007456964813173,-0.852348804473877,-1.853140473365784,-8.566584587097167,26.35
11,602,-0.006391684990376,0.041545946151018,-0.005326403304935,-0.837983369827271,-1.867505788803100,-8.489969253540039,26.34
11,603,-0.006391684990376,0.040480665862560,-0.006391684990376,-0.799675583839417,-1.838774919509888,-8.528276443481445,26.36
11,604,-0.005326403304935,0.041545946151018,-0.006391684990376,-0.799675583839417,-1.877082824707031,-8.518699645996093,26.34
11,605,-0.006391684990376,0.041545946151018,-0.006391684990376,-0.804464042186737,-1.862717270851135,-8.485180854797363,26.34
11,606,-0.004261123016477,0.040480665862560,-0.007456964813173,-0.814041018486023,-1.872294425964355,-8.494757652282714,26.33
11,607,-0.005326403304935,0.040480665862560,-0.007456964813173,-0.809252500534058,-1.848351955413818,-8.489969253540039,26.33
11,608,-0.005326403304935,0.040480665862560,-0.007456964813173,-0.809252500534058,-1.848351955413818,-8.489969253540039,26.33
11,609,-0.004261123016477,0.041545946151018,-0.006391684990376,-0.847560346126556,-1.872294425964355,-8.528276443481445,26.34
11,610,-0.004261123016477,0.041545946151018,-0.006391684990376,-0.818829476833344,-1.872294425964355,-8.494757652282714,26.34
11,611,-0.005326403304935,0.041545946151018,-0.006391684990376,-0.833194911479950,-1.848351955413818,-8.547430038452148,26.34
11,612,-0.004261123016477,0.041545946151018,-0.006391684990376,-0.837983369827271,-1.862717270851135,-8.466026306152343,26.34
11,613,-0.005326403304935,0.041545946151018,-0.008522246032953,-0.857137262821198,-1.843563318252563,-8.595314979553222,26.33
11,614,-0.004261123016477,0.041545946151018,-0.005326403304935,-0.828406453132629,-1.867505788803100,-8.470814704895019,26.36
11,615,-0.005326403304935,0.041545946151018,-0.007456964813173,-0.847560346126556,-1.857928872108459,-8.523488044738769,26.34
11,616,-0.005326403304935,0.041545946151018,-0.007456964813173,-0.847560346126556,-1.857928872108459,-8.523488044738769,26.34
11,617,-0.005326403304935,0.041545946151018,-0.006391684990376,-0.837983369827271,-1.862717270851135,-8.470814704895019,26.33
11,618,-0.003195842495188,0.042611226439476,-0.007456964813173,-0.842771828174591,-1.853140473365784,-8.542641639709472,26.35
11,619,-0.002130561508238,0.040480665862560,-0.006391684990376,-0.847560346126556,-1.848351955413818,-8.533064842224121,26.34
11,620,-0.004261123016477,0.041545946151018,-0.006391684990376,-0.833194911479950,-1.886659741401672,-8.470814704895019,26.34
11,621,-0.005326403304935,0.041545946151018,-0.005326403304935,-0.833194911479950,-1.819621086120605,-8.523488044738769,26.33
11,622,-0.005326403304935,0.040480665862560,-0.005326403304935,-0.837983369827271,-1.857928872108459,-8.552218437194824,26.33
11,623,-0.005326403304935,0.040480665862560,-0.005326403304935,-0.837983369827271,-1.857928872108459,-8.552218437194824,26.33
11,624,-0.005326403304935,0.040480665862560,-0.006391684990376,-0.804464042186737,-1.877082824707031,-8.547430038452148,26.32
11,625,-0.004261123016477,0.041545946151018,-0.007456964813173,-0.828406453132629,-1.881871223449707,-8.513911247253417,26.33
11,626,-0.005326403304935,0.041545946151018,-0.006391684990376,-0.852348804473877,-1.833986520767212,-8.523488044738769,26.33
11,627,-0.004261123016477,0.041545946151018,-0.006391684990376,-0.852348804473877,-1.886659741401672,-8.533064842224121,26.34
11,628,-0.005326403304935,0.041545946151018,-0.006391684990376,-0.833194911479950,-1.843563318252563,-8.461237907409667,26.34
11,629,-0.005326403304935,0.041545946151018,-0.006391684990376,-0.837983369827271,-1.862717270851135,-8.523488044738769,26.33
11,630,-0.005326403304935,0.041545946151018,-0.006391684990376,-0.837983369827271,-1.862717270851135,-8.523488044738769,26.33
11,631,-0.004261123016477,0.040480665862560,-0.006391684990376,-0.861925780773163,-1.867505788803100,-8.480391502380371,26.34
11,632,-0.004261123016477,0.041545946151018,-0.007456964813173,-0.847560346126556,-1.901025056838989,-8.494757652282714,26.34
11,633,-0.004261123016477,0.040480665862560,-0.006391684990376,-0.881079673767090,-1.833986520767212,-8.537853240966796,26.33
11,634,-0.005326403304935,0.042611226439476,-0.007456964813173,-0.823617935180664,-1.872294425964355,-8.547430038452148,26.33
11,635,-0.005326403304935,0.040480665862560,-0.006391684990376,-0.809252500534058,-1.857928872108459,-8.475603103637695,26.34
11,636,-0.005326403304935,0.041545946151018,-0.007456964813173,-0.852348804473877,-1.877082824707031,-8.509122848510742,26.34
11,637,-0.004261123016477,0.041545946151018,-0.006391684990376,-0.804464042186737,-1.872294425964355,-8.537853240966796,26.34
11,638,-0.004261123016477,0.041545946151018,-0.006391684990376,-0.804464042186737,-1.872294425964355,-8.537853240966796,26.34
11,639,-0.005326403304935,0.041545946151018,-0.007456964813173,-0.818829476833344,-1.877082824707031,-8.513911247253417,26.34
11,640,-0.004261123016477,0.041545946151018,-0.007456964813173,-0.847560346126556,-1.905813574790954,-8.513911247253417,26.34
11,641,-0.005326403304935,0.040480665862560,-0.005326403304935,-0.857137262821198,-1.867505788803100,-8.533064842224121,26.34
11,642,-0.004261123016477,0.041545946151018,-0.006391684990376,-0.871502697467804,-1.867505788803100,-8.504334449768066,26.33
11,643,-0.005326403304935,0.041545946151018,-0.007456964813173,-0.833194911479950,-1.843563318252563,-8.523488044738769,26.34
11,644,-0.003195842495188,0.041545946151018,-0.006391684990376,-0.847560346126556,-1.819621086120605,-8.547430038452148,26.33
11,645,-0.003195842495188,0.041545946151018,-0.006391684990376,-0.847560346126556,-1.819621086120605,-8.547430038452148,26.33
11,646,-0.005326403304935,0.041545946151018,-0.004261123016477,-0.866714239120483,-1.843563318252563,-8.513911247253417,26.33
11,647,-0.004261123016477,0.040480665862560,-0.007456964813173,-0.823617935180664,-1.896236658096313,-8.466026306152343,26.35
11,648,-0.004261123016477,0.042611226439476,-0.005326403304935,-0.818829476833344,-1.867505788803100,-8.561796188354492,26.33
11,649,-0.004261123016477,0.041545946151018,-0.005326403304935,-0.828406453132629,-1.877082824707031,-8.537853240966796,26.33
11,650,-0.005326403304935,0.040480665862560,-0.006391684990376,-0.828406453132629,-1.867505788803100,-8.499546051025390,26.33
11,651,-0.005326403304935,0.041545946151018,-0.006391684990376,-0.852348804473877,-1.877082824707031,-8.499546051025390,26.35
11,652,-0.005326403304935,0.041545946151018,-0.005326403304935,-0.857137262821198,-1.814832687377930,-8.518699645996093,26.33
11,653,-0.004261123016477,0.041545946151018,-0.007456964813173,-0.866714239120483,-1.891448259353638,-8.552218437194824,26.35
11,654,-0.005326403304935,0.041545946151018,-0.007456964813173,-0.837983369827271,-1.824409484863281,-8.566584587097167,26.33
11,655,-0.005326403304935,0.041545946151018,-0.007456964813173,-0.794887065887451,-1.848351955413818,-8.504334449768066,26.32
11,656,-0.004261123016477,0.041545946151018,-0.006391684990376,-0.837983369827271,-1.853140473365784,-8.566584587097167,26.34
11,657,-0.005326403304935,0.040480665862560,-0.006391684990376,-0.842771828174591,-1.886659741401672,-8.513911247253417,26.34
11,658,-0.004261123016477,0.040480665862560,-0.007456964813173,-0.799675583839417,-1.886659741401672,-8.518699645996093,26.36
11,659,-0.004261123016477,0.040480665862560,-0.007456964813173,-0.837983369827271,-1.886659741401672,-8.528276443481445,26.35
11,660,-0.004261123016477,0.040480665862560,-0.007456964813173,-0.837983369827271,-1.886659741401672,-8.528276443481445,26.35
11,661,-0.003195842495188,0.041545946151018,-0.006391684990376,-0.852348804473877,-1.886659741401672,-8.533064842224121,26.33
11,662,-0.004261123016477,0.041545946151018,-0.006391684990376,-0.809252500534058,-1.853140473365784,-8.504334449768066,26.34
11,663,-0.003195842495188,0.041545946151018,-0.006391684990376,-0.828406453132629,-1.877082824707031,-8.499546051025390,26.36
11,664,-0.004261123016477,0.041545946151018,-0.007456964813173,-0.823617935180664,-1.862717270851135,-8.470814704895019,26.32
11,665,-0.004261123016477,0.041545946151018,-0.005326403304935,-0.842771828174591,-1.881871223449707,-8.537853240966796,26.31
11,666,-0.004261123016477,0.041545946151018,-0.006391684990376,-0.837983369827271,-1.867505788803100,-8.528276443481445,26.33
11,667,-0.004261123016477,0.041545946151018,-0.006391684990376,-0.837983369827271,-1.867505788803100,-8.528276443481445,26.33
11,668,-0.005326403304935,0.041545946151018,-0.006391684990376,-0.842771828174591,-1.853140473365784,-8.504334449768066,26.34
11,669,-0.005326403304935,0.041545946151018,-0.007456964813173,-0.852348804473877,-1.877082824707031,-8.466026306152343,26.32
11,670,-0.004261123016477,0.042611226439476,-0.005326403304935,-0.852348804473877,-1.872294425964355,-8.499546051025390,26.34
11,671,-0.004261123016477,0.041545946151018,-0.005326403304935,-0.871502697467804,-1.862717270851135,-8.542641639709472,26.34
11,672,-0.004261123016477,0.041545946151018,-0.006391684990376,-0.809252500534058,-1.862717270851135,-8.509122848510742,26.34
11,673,-0.004261123016477,0.041545946151018,-0.006391684990376,-0.804464042186737,-1.867505788803100,-8.523488044738769,26.33
11,674,-0.004261123016477,0.040480665862560,-0.007456964813173,-0.876291215419769,-1.886659741401672,-8.504334449768066,26.33
11,675,-0.004261123016477,0.040480665862560,-0.007456964813173,-0.876291215419769,-1.886659741401672,-8.504334449768066,26.33
11,676,-0.005326403304935,0.041545946151018,-0.006391684990376,-0.828406453132629,-1.814832687377930,-8.523488044738769,26.34
11,677,-0.005326403304935,0.041545946151018,-0.006391684990376,-0.871502697467804,-1.891448259353638,-8.595314979553222,26.32
11,678,-0.005326403304935,0.041545946151018,-0.006391684990376,-0.847560346126556,-1.877082824707031,-8.533064842224121,26.35
11,679,-0.003195842495188,0.041545946151018,-0.006391684990376,-0.804464042186737,-1.877082824707031,-8.494757652282714,26.34
11,680,-0.006391684990376,0.041545946151018,-0.006391684990376,-0.794887065887451,-1.891448259353638,-8.456449508666992,26.34
11,681,-0.003195842495188,0.040480665862560,-0.005326403304935,-0.842771828174591,-1.824409484863281,-8.509122848510742,26.34
11,682,-0.003195842495188,0.040480665862560,-0.005326403304935,-0.842771828174591,-1.824409484863281,-8.509122848510742,26.34
11,683,-0.004261123016477,0.041545946151018,-0.007456964813173,-0.818829476833344,-1.838774919509888,-8.475603103637695,26.31
11,684,-0.005326403304935,0.042611226439476,-0.006391684990376,-0.847560346126556,-1.824409484863281,-8.509122848510742,26.34
11,685,-0.004261123016477,0.040480665862560,-0.006391684990376,-0.799675583839417,-1.881871223449707,-8.470814704895019,26.35
11,686,-0.005326403304935,0.041545946151018,-0.007456964813173,-0.852348804473877,-1.862717270851135,-8.489969253540039,26.34
11,687,-0.004261123016477,0.041545946151018,-0.007456964813173,-0.823617935180664,-1.872294425964355,-8.523488044738769,26.34
11,688,-0.005326403304935,0.042611226439476,-0.006391684990376,-0.794887065887451,-1.843563318252563,-8.547430038452148,26.35
11,689,-0.004261123016477,0.041545946151018,-0.005326403304935,-0.857137262821198,-1.896236658096313,-8.456449508666992,26.33
11,690,-0.005326403304935,0.041545946151018,-0.006391684990376,-0.837983369827271,-1.853140473365784,-8.466026306152343,26.34
11,691,-0.004261123016477,0.040480665862560,-0.005326403304935,-0.833194911479950,-1.867505788803100,-8.475603103637695,26.33
11,692,-0.004261123016477,0.041545946151018,-0.005326403304935,-0.876291215419769,-1.891448259353638,-8.566584587097167,26.36
11,693,-0.004261123016477,0.042611226439476,-0.007456964813173,-0.842771828174591,-1.848351955413818,-8.566584587097167,26.36
11,694,-0.005326403304935,0.042611226439476,-0.005326403304935,-0.885868132114410,-1.877082824707031,-8.518699645996093,26.33
11,695,-0.005326403304935,0.042611226439476,-0.007456964813173,-0.852348804473877,-1.872294425964355,-8.537853240966796,26.34
11,696,-0.004261123016477,0.041545946151018,-0.007456964813173,-0.852348804473877,-1.872294425964355,-8.480391502380371,26.34
11,697,-0.004261123016477,0.041545946151018,-0.007456964813173,-0.852348804473877,-1.872294425964355,-8.480391502380371,26.34
11,698,-0.004261123016477,0.041545946151018,-0.007456964813173,-0.847560346126556,-1.853140473365784,-8.485180854797363,26.36
11,699,-0.005326403304935,0.042611226439476,-0.005326403304935,-0.828406453132629,-1.857928872108459,-8.509122848510742,26.35
11,700,-0.004261123016477,0.041545946151018,-0.007456964813173,-0.876291215419769,-1.857928872108459,-8.585738182067871,26.35
11,701,-0.006391684990376,0.041545946151018,-0.006391684990376,-0.823617935180664,-1.867505788803100,-8.494757652282714,26.34
11,702,-0.004261123016477,0.041545946151018,-0.006391684990376,-0.857137262821198,-1.848351955413818,-8.542641639709472,26.34
11,703,-0.003195842495188,0.041545946151018,-0.005326403304935,-0.842771828174591,-1.853140473365784,-8.499546051025390,26.32
11,704,-0.003195842495188,0.041545946151018,-0.005326403304935,-0.842771828174591,-1.853140473365784,-8.499546051025390,26.32
11,705,-0.004261123016477,0.041545946151018,-0.006391684990376,-0.828406453132629,-1.872294425964355,-8.504334449768066,26.35
11,706,-0.004261123016477,0.041545946151018,-0.007456964813173,-0.861925780773163,-1.838774919509888,-8.489969253540039,26.35
11,707,-0.004261123016477,0.040480665862560,-0.007456964813173,-0.852348804473877,-1.838774919509888,-8.533064842224121,26.36
11,708,-0.006391684990376,0.042611226439476,-0.006391684990376,-0.828406453132629,-1.862717270851135,-8.504334449768066,26.34
11,709,-0.005326403304935,0.040480665862560,-0.006391684990376,-0.814041018486023,-1.896236658096313,-8.485180854797363,26.34
11,710,-0.004261123016477,0.041545946151018,-0.007456964813173,-0.852348804473877,-1.862717270851135,-8.533064842224121,26.35
11,711,-0.004261123016477,0.040480665862560,-0.007456964813173,-0.847560346126556,-1.843563318252563,-8.533064842224121,26.35
11,712,-0.004261123016477,0.040480665862560,-0.007456964813173,-0.847560346126556,-1.843563318252563,-8.533064842224121,26.35
11,713,-0.005326403304935,0.041545946151018,-0.007456964813173,-0.885868132114410,-1.848351955413818,-8.566584587097167,26.34
11,714,-0.004261123016477,0.041545946151018,-0.006391684990376,-0.866714239120483,-1.848351955413818,-8.533064842224121,26.34
11,715,-0.004261123016477,0.041545946151018,-0.006391684990376,-0.790098607540131,-1.857928872108459,-8.480391502380371,26.34
11,716,-0.005326403304935,0.042611226439476,-0.006391684990376,-0.885868132114410,-1.853140473365784,-8.537853240966796,26.32
11,717,-0.005326403304935,0.042611226439476,-0.005326403304935,-0.837983369827271,-1.881871223449707,-8.561796188354492,26.34
11,718,-0.004261123016477,0.041545946151018,-0.006391684990376,-0.847560346126556,-1.896236658096313,-8.528276443481445,26.32
11,719,-0.004261123016477,0.041545946151018,-0.006391684990376,-0.847560346126556,-1.896236658096313,-8.528276443481445,26.32
11,720,-0.005326403304935,0.040480665862560,-0.007456964813173,-0.871502697467804,-1.872294425964355,-8.528276443481445,26.33
11,721,-0.005326403304935,0.041545946151018,-0.007456964813173,-0.861925780773163,-1.838774919509888,-8.509122848510742,26.36
11,722,-0.005326403304935,0.041545946151018,-0.006391684990376,-0.871502697467804,-1.896236658096313,-8.494757652282714,26.34
11,723,-0.004261123016477,0.042611226439476,-0.006391684990376,-0.861925780773163,-1.857928872108459,-8.513911247253417,26.35
11,724,-0.005326403304935,0.042611226439476,-0.005326403304935,-0.842771828174591,-1.853140473365784,-8.518699645996093,26.35
11,725,-0.004261123016477,0.041545946151018,-0.005326403304935,-0.823617935180664,-1.915390610694885,-8.537853240966796,26.34
11,726,-0.005326403304935,0.041545946151018,-0.005326403304935,-0.876291215419769,-1.877082824707031,-8.571372985839843,26.35
11,727,-0.004261123016477,0.040480665862560,-0.006391684990376,-0.847560346126556,-1.886659741401672,-8.533064842224121,26.33
11,728,-0.004261123016477,0.041545946151018,-0.006391684990376,-0.809252500534058,-1.862717270851135,-8.537853240966796,26.35
11,729,-0.004261123016477,0.042611226439476,-0.006391684990376,-0.876291215419769,-1.905813574790954,-8.571372985839843,26.36
11,730,-0.005326403304935,0.040480665862560,-0.006391684990376,-0.876291215419769,-1.872294425964355,-8.571372985839843,26.37
11,731,-0.005326403304935,0.042611226439476,-0.006391684990376,-0.871502697467804,-1.853140473365784,-8.523488044738769,26.35
11,732,-0.006391684990376,0.042611226439476,-0.005326403304935,-0.842771828174591,-1.872294425964355,-8.499546051025390,26.34
11,733,-0.004261123016477,0.040480665862560,-0.007456964813173,-0.852348804473877,-1.862717270851135,-8.633623123168945,26.33
11,734,-0.004261123016477,0.040480665862560,-0.007456964813173,-0.852348804473877,-1.862717270851135,-8.633623123168945,26.33
11,735,-0.005326403304935,0.041545946151018,-0.005326403304935,-0.857137262821198,-1.853140473365784,-8.547430038452148,26.35
11,736,-0.005326403304935,0.041545946151018,-0.006391684990376,-0.837983369827271,-1.881871223449707,-8.485180854797363,26.34
11,737,-0.005326403304935,0.040480665862560,-0.006391684990376,-0.833194911479950,-1.886659741401672,-8.561796188354492,26.32
11,738,-0.004261123016477,0.041545946151018,-0.006391684990376,-0.852348804473877,-1.886659741401672,-8.504334449768066,26.35
11,739,-0.004261123016477,0.040480665862560,-0.006391684990376,-0.900233566761017,-1.862717270851135,-8.485180854797363,26.34
11,740,-0.004261123016477,0.041545946151018,-0.006391684990376,-0.837983369827271,-1.886659741401672,-8.528276443481445,26.36
11,741,-0.004261123016477,0.041545946151018,-0.006391684990376,-0.837983369827271,-1.886659741401672,-8.528276443481445,26.36
11,742,-0.003195842495188,0.041545946151018,-0.006391684990376,-0.833194911479950,-1.891448259353638,-8.580949783325195,26.33
11,743,-0.003195842495188,0.041545946151018,-0.006391684990376,-0.833194911479950,-1.877082824707031,-8.638411521911621,26.34
11,744,-0.004261123016477,0.041545946151018,-0.007456964813173,-0.833194911479950,-1.872294425964355,-8.552218437194824,26.36
11,745,-0.003195842495188,0.041545946151018,-0.006391684990376,-0.818829476833344,-1.843563318252563,-8.533064842224121,26.36
11,746,-0.004261123016477,0.041545946151018,-0.007456964813173,-0.852348804473877,-1.920179009437561,-8.485180854797363,26.34
11,747,-0.006391684990376,0.041545946151018,-0.007456964813173,-0.828406453132629,-1.843563318252563,-8.547430038452148,26.34
11,748,-0.004261123016477,0.041545946151018,-0.006391684990376,-0.823617935180664,-1.857928872108459,-8.461237907409667,26.33
11,749,-0.004261123016477,0.041545946151018,-0.006391684990376,-0.823617935180664,-1.857928872108459,-8.461237907409667,26.33
11,750,-0.004261123016477,0.040480665862560,-0.006391684990376,-0.809252500534058,-1.867505788803100,-8.509122848510742,26.34
11,751,-0.004261123016477,0.041545946151018,-0.006391684990376,-0.837983369827271,-1.901025056838989,-8.523488044738769,26.34
11,752,-0.004261123016477,0.041545946151018,-0.006391684990376,-0.794887065887451,-1.891448259353638,-8.509122848510742,26.33
11,753,-0.005326403304935,0.040480665862560,-0.006391684990376,-0.852348804473877,-1.862717270851135,-8.542641639709472,26.34
11,754,-0.004261123016477,0.041545946151018,-0.007456964813173,-0.847560346126556,-1.877082824707031,-8.547430038452148,26.31
11,755,-0.005326403304935,0.041545946151018,-0.006391684990376,-0.837983369827271,-1.829198002815246,-8.466026306152343,26.36
11,756,-0.005326403304935,0.041545946151018,-0.006391684990376,-0.837983369827271,-1.829198002815246,-8.466026306152343,26.36
11,757,-0.006391684990376,0.041545946151018,-0.007456964813173,-0.837983369827271,-1.838774919509888,-8.475603103637695,26.33
11,758,-0.005326403304935,0.042611226439476,-0.004261123016477,-0.837983369827271,-1.877082824707031,-8.480391502380371,26.34
11,759,-0.004261123016477,0.041545946151018,-0.006391684990376,-0.804464042186737,-1.843563318252563,-8.523488044738769,26.36
11,760,-0.004261123016477,0.041545946151018,-0.004261123016477,-0.837983369827271,-1.905813574790954,-8.513911247253417,26.33
11,761,-0.004261123016477,0.040480665862560,-0.006391684990376,-0.857137262821198,-1.853140473365784,-8.533064842224121,26.34
11,762,-0.005326403304935,0.041545946151018,-0.006391684990376,-0.809252500534058,-1.881871223449707,-8.485180854797363,26.33
11,763,-0.004261123016477,0.041545946151018,-0.006391684990376,-0.857137262821198,-1.867505788803100,-8.494757652282714,26.33
11,764,-0.004261123016477,0.042611226439476,-0.005326403304935,-0.828406453132629,-1.872294425964355,-8.437294960021972,26.34
11,765,-0.004261123016477,0.040480665862560,-0.006391684990376,-0.842771828174591,-1.833986520767212,-8.509122848510742,26.34
11,766,-0.005326403304935,0.041545946151018,-0.007456964813173,-0.842771828174591,-1.857928872108459,-8.533064842224121,26.34
11,767,-0.003195842495188,0.041545946151018,-0.007456964813173,-0.818829476833344,-1.843563318252563,-8.513911247253417,26.33
11,768,-0.005326403304935,0.041545946151018,-0.006391684990376,-0.852348804473877,-1.848351955413818,-8.499546051025390,26.36
11,769,-0.004261123016477,0.042611226439476,-0.006391684990376,-0.861925780773163,-1.872294425964355,-8.499546051025390,26.35
11,770,-0.004261123016477,0.041545946151018,-0.007456964813173,-0.818829476833344,-1.867505788803100,-8.566584587097167,26.34
11,771,-0.004261123016477,0.041545946151018,-0.007456964813173,-0.818829476833344,-1.867505788803100,-8.566584587097167,26.34
11,772,-0.005326403304935,0.041545946151018,-0.006391684990376,-0.828406453132629,-1.843563318252563,-8.580949783325195,26.33
11,773,-0.005326403304935,0.040480665862560,-0.005326403304935,-0.823617935180664,-1.891448259353638,-8.509122848510742,26.36
11,774,-0.004261123016477,0.041545946151018,-0.007456964813173,-0.823617935180664,-1.872294425964355,-8.509122848510742,26.33
11,775,-0.004261123016477,0.041545946151018,-0.006391684990376,-0.871502697467804,-1.824409484863281,-8.557006835937500,26.36
11,776,-0.003195842495188,0.041545946151018,-0.006391684990376,-0.876291215419769,-1.862717270851135,-8.494757652282714,26.34
11,777,-0.005326403304935,0.042611226439476,-0.007456964813173,-0.842771828174591,-1.843563318252563,-8.552218437194824,26.36
11,778,-0.005326403304935,0.042611226439476,-0.007456964813173,-0.842771828174591,-1.843563318252563,-8.552218437194824,26.36
11,779,-0.005326403304935,0.040480665862560,-0.005326403304935,-0.866714239120483,-1.877082824707031,-8.513911247253417,26.35
11,780,-0.005326403304935,0.040480665862560,-0.006391684990376,-0.876291215419769,-1.838774919509888,-8.552218437194824,26.35
11,781,-0.003195842495188,0.041545946151018,-0.007456964813173,-0.857137262821198,-1.896236658096313,-8.489969253540039,26.35
11,782,-0.003195842495188,0.041545946151018,-0.007456964813173,-0.842771828174591,-1.877082824707031,-8.504334449768066,26.35
11,783,-0.005326403304935,0.041545946151018,-0.006391684990376,-0.852348804473877,-1.867505788803100,-8.537853240966796,26.33
11,784,-0.006391684990376,0.041545946151018,-0.006391684990376,-0.833194911479950,-1.872294425964355,-8.557006835937500,26.36
11,785,-0.005326403304935,0.041545946151018,-0.006391684990376,-0.837983369827271,-1.833986520767212,-8.533064842224121,26.36
11,786,-0.005326403304935,0.041545946151018,-0.006391684990376,-0.837983369827271,-1.833986520767212,-8.533064842224121,26.36
11,787,-0.004261123016477,0.041545946151018,-0.007456964813173,-0.857137262821198,-1.867505788803100,-8.542641639709472,26.33
11,788,-0.004261123016477,0.041545946151018,-0.006391684990376,-0.828406453132629,-1.838774919509888,-8.590526580810546,26.33
11,789,-0.004261123016477,0.042611226439476,-0.007456964813173,-0.837983369827271,-1.905813574790954,-8.557006835937500,26.34
11,790,-0.006391684990376,0.041545946151018,-0.005326403304935,-0.861925780773163,-1.877082824707031,-8.566584587097167,26.35
11,791,-0.005326403304935,0.041545946151018,-0.007456964813173,-0.885868132114410,-1.857928872108459,-8.580949783325195,26.36
11,792,-0.004261123016477,0.041545946151018,-0.006391684990376,-0.814041018486023,-1.872294425964355,-8.485180854797363,26.37
11,793,-0.004261123016477,0.041545946151018,-0.006391684990376,-0.814041018486023,-1.872294425964355,-8.485180854797363,26.37
11,794,-0.005326403304935,0.041545946151018,-0.007456964813173,-0.847560346126556,-1.881871223449707,-8.528276443481445,26.34
11,795,-0.005326403304935,0.041545946151018,-0.006391684990376,-0.857137262821198,-1.857928872108459,-8.604892730712890,26.34
11,796,-0.004261123016477,0.041545946151018,-0.007456964813173,-0.866714239120483,-1.901025056838989,-8.566584587097167,26.33
11,797,-0.004261123016477,0.040480665862560,-0.006391684990376,-0.857137262821198,-1.838774919509888,-8.518699645996093,26.34
11,798,-0.004261123016477,0.042611226439476,-0.006391684990376,-0.837983369827271,-1.862717270851135,-8.518699645996093,26.33
11,799,-0.005326403304935,0.041545946151018,-0.006391684990376,-0.823617935180664,-1.891448259353638,-8.461237907409667,26.35
11,800,-0.004261123016477,0.042611226439476,-0.006391684990376,-0.861925780773163,-1.862717270851135,-8.528276443481445,26.32
11,801,-0.005326403304935,0.041545946151018,-0.007456964813173,-0.814041018486023,-1.838774919509888,-8.499546051025390,26.34
11,802,-0.005326403304935,0.041545946151018,-0.008522246032953,-0.828406453132629,-1.881871223449707,-8.537853240966796,26.35
11,803,-0.007456964813173,0.041545946151018,-0.007456964813173,-0.842771828174591,-1.838774919509888,-8.595314979553222,26.35
11,804,-0.005326403304935,0.040480665862560,-0.006391684990376,-0.842771828174591,-1.901025056838989,-8.466026306152343,26.36
11,805,-0.004261123016477,0.042611226439476,-0.006391684990376,-0.852348804473877,-1.901025056838989,-8.537853240966796,26.36
11,806,-0.003195842495188,0.041545946151018,-0.004261123016477,-0.852348804473877,-1.848351955413818,-8.557006835937500,26.34
11,807,-0.003195842495188,0.042611226439476,-0.008522246032953,-0.861925780773163,-1.886659741401672,-8.585738182067871,26.34
11,808,-0.003195842495188,0.042611226439476,-0.008522246032953,-0.861925780773163,-1.886659741401672,-8.585738182067871,26.34
11,809,-0.006391684990376,0.042611226439476,-0.006391684990376,-0.775733172893524,-1.896236658096313,-8.485180854797363,26.34
11,810,-0.004261123016477,0.041545946151018,-0.007456964813173,-0.842771828174591,-1.853140473365784,-8.533064842224121,26.34
11,811,-0.004261123016477,0.042611226439476,-0.006391684990376,-0.852348804473877,-1.838774919509888,-8.561796188354492,26.33
11,812,-0.004261123016477,0.040480665862560,-0.006391684990376,-0.861925780773163,-1.881871223449707,-8.499546051025390,26.36
11,813,-0.004261123016477,0.042611226439476,-0.007456964813173,-0.847560346126556,-1.833986520767212,-8.494757652282714,26.37
11,814,-0.004261123016477,0.041545946151018,-0.007456964813173,-0.804464042186737,-1.862717270851135,-8.533064842224121,26.35
11,815,-0.004261123016477,0.041545946151018,-0.007456964813173,-0.804464042186737,-1.862717270851135,-8.533064842224121,26.35
11,816,-0.004261123016477,0.041545946151018,-0.005326403304935,-0.857137262821198,-1.853140473365784,-8.523488044738769,26.36
11,817,-0.004261123016477,0.040480665862560,-0.004261123016477,-0.847560346126556,-1.819621086120605,-8.552218437194824,26.36
11,818,-0.005326403304935,0.041545946151018,-0.006391684990376,-0.818829476833344,-1.857928872108459,-8.523488044738769,26.35
11,819,-0.004261123016477,0.041545946151018,-0.006391684990376,-0.857137262821198,-1.886659741401672,-8.547430038452148,26.33
11,820,-0.004261123016477,0.042611226439476,-0.006391684990376,-0.809252500534058,-1.872294425964355,-8.571372985839843,26.36
11,821,-0.004261123016477,0.040480665862560,-0.006391684990376,-0.823617935180664,-1.862717270851135,-8.504334449768066,26.34
11,822,-0.005326403304935,0.042611226439476,-0.005326403304935,-0.842771828174591,-1.886659741401672,-8.566584587097167,26.34
11,823,-0.005326403304935,0.042611226439476,-0.005326403304935,-0.842771828174591,-1.886659741401672,-8.566584587097167,26.34
11,824,-0.006391684990376,0.041545946151018,-0.006391684990376,-0.837983369827271,-1.853140473365784,-8.499546051025390,26.35
11,825,-0.003195842495188,0.041545946151018,-0.006391684990376,-0.814041018486023,-1.867505788803100,-8.504334449768066,26.34
11,826,-0.005326403304935,0.041545946151018,-0.006391684990376,-0.837983369827271,-1.838774919509888,-8.566584587097167,26.34
11,827,-0.003195842495188,0.041545946151018,-0.006391684990376,-0.823617935180664,-1.838774919509888,-8.485180854797363,26.33
11,828,-0.005326403304935,0.041545946151018,-0.007456964813173,-0.852348804473877,-1.824409484863281,-8.499546051025390,26.35
11,829,-0.005326403304935,0.042611226439476,-0.006391684990376,-0.837983369827271,-1.877082824707031,-8.494757652282714,26.35
11,830,-0.005326403304935,0.042611226439476,-0.006391684990376,-0.837983369827271,-1.877082824707031,-8.494757652282714,26.35
11,831,-0.004261123016477,0.042611226439476,-0.006391684990376,-0.842771828174591,-1.824409484863281,-8.561796188354492,26.32
11,832,-0.003195842495188,0.040480665862560,-0.006391684990376,-0.857137262821198,-1.867505788803100,-8.518699645996093,26.33
11,833,-0.004261123016477,0.042611226439476,-0.007456964813173,-0.861925780773163,-1.843563318252563,-8.523488044738769,26.36
11,834,-0.004261123016477,0.041545946151018,-0.005326403304935,-0.828406453132629,-1.857928872108459,-8.509122848510742,26.34
11,835,-0.005326403304935,0.041545946151018,-0.005326403304935,-0.818829476833344,-1.872294425964355,-8.580949783325195,26.37
11,836,-0.004261123016477,0.041545946151018,-0.006391684990376,-0.857137262821198,-1.848351955413818,-8.485180854797363,26.34
11,837,-0.004261123016477,0.041545946151018,-0.006391684990376,-0.857137262821198,-1.848351955413818,-8.485180854797363,26.34
11,838,-0.004261123016477,0.040480665862560,-0.007456964813173,-0.852348804473877,-1.872294425964355,-8.566584587097167,26.34
11,839,-0.004261123016477,0.040480665862560,-0.006391684990376,-0.881079673767090,-1.848351955413818,-8.518699645996093,26.34
11,840,-0.005326403304935,0.041545946151018,-0.006391684990376,-0.837983369827271,-1.838774919509888,-8.533064842224121,26.35
11,841,-0.004261123016477,0.040480665862560,-0.007456964813173,-0.804464042186737,-1.843563318252563,-8.480391502380371,26.34
11,842,-0.005326403304935,0.041545946151018,-0.006391684990376,-0.837983369827271,-1.843563318252563,-8.547430038452148,26.34
11,843,-0.003195842495188,0.042611226439476,-0.006391684990376,-0.861925780773163,-1.862717270851135,-8.533064842224121,26.35
11,844,-0.004261123016477,0.041545946151018,-0.007456964813173,-0.823617935180664,-1.848351955413818,-8.499546051025390,26.33
11,845,-0.004261123016477,0.041545946151018,-0.007456964813173,-0.823617935180664,-1.848351955413818,-8.499546051025390,26.33
11,846,-0.005326403304935,0.042611226439476,-0.005326403304935,-0.833194911479950,-1.867505788803100,-8.547430038452148,26.36
11,847,-0.004261123016477,0.041545946151018,-0.007456964813173,-0.823617935180664,-1.886659741401672,-8.499546051025390,26.34
11,848,-0.004261123016477,0.041545946151018,-0.005326403304935,-0.833194911479950,-1.905813574790954,-8.533064842224121,26.33
11,849,-0.004261123016477,0.042611226439476,-0.006391684990376,-0.852348804473877,-1.843563318252563,-8.580949783325195,26.34
11,850,-0.003195842495188,0.042611226439476,-0.006391684990376,-0.833194911479950,-1.843563318252563,-8.523488044738769,26.34
11,851,-0.005326403304935,0.040480665862560,-0.007456964813173,-0.837983369827271,-1.886659741401672,-8.537853240966796,26.34
11,852,-0.005326403304935,0.040480665862560,-0.007456964813173,-0.837983369827271,-1.886659741401672,-8.537853240966796,26.34
11,853,-0.005326403304935,0.041545946151018,-0.006391684990376,-0.828406453132629,-1.848351955413818,-8.509122848510742,26.35
11,854,-0.003195842495188,0.040480665862560,-0.006391684990376,-0.823617935180664,-1.886659741401672,-8.561796188354492,26.34
11,855,-0.004261123016477,0.040480665862560,-0.006391684990376,-0.809252500534058,-1.857928872108459,-8.513911247253417,26.34
11,856,-0.004261123016477,0.041545946151018,-0.007456964813173,-0.809252500534058,-1.848351955413818,-8.480391502380371,26.35
11,857,-0.005326403304935,0.041545946151018,-0.007456964813173,-0.828406453132629,-1.838774919509888,-8.518699645996093,26.34
11,858,-0.002130561508238,0.040480665862560,-0.005326403304935,-0.837983369827271,-1.896236658096313,-8.533064842224121,26.33
11,859,-0.004261123016477,0.041545946151018,-0.006391684990376,-0.809252500534058,-1.838774919509888,-8.523488044738769,26.34
11,860,-0.004261123016477,0.041545946151018,-0.006391684990376,-0.809252500534058,-1.838774919509888,-8.523488044738769,26.34
11,861,-0.003195842495188,0.040480665862560,-0.006391684990376,-0.833194911479950,-1.881871223449707,-8.489969253540039,26.34
11,862,-0.004261123016477,0.042611226439476,-0.007456964813173,-0.842771828174591,-1.862717270851135,-8.489969253540039,26.35
11,863,-0.004261123016477,0.041545946151018,-0.006391684990376,-0.837983369827271,-1.862717270851135,-8.528276443481445,26.33
11,864,-0.005326403304935,0.040480665862560,-0.007456964813173,-0.852348804473877,-1.857928872108459,-8.489969253540039,26.35
11,865,-0.004261123016477,0.042611226439476,-0.007456964813173,-0.814041018486023,-1.910602211952209,-8.528276443481445,26.34
11,866,-0.003195842495188,0.041545946151018,-0.005326403304935,-0.842771828174591,-1.857928872108459,-8.489969253540039,26.35
11,867,-0.003195842495188,0.041545946151018,-0.005326403304935,-0.842771828174591,-1.857928872108459,-8.489969253540039,26.35
11,868,-0.004261123016477,0.041545946151018,-0.007456964813173,-0.842771828174591,-1.829198002815246,-8.537853240966796,26.34
11,869,-0.004261123016477,0.041545946151018,-0.006391684990376,-0.847560346126556,-1.833986520767212,-8.480391502380371,26.33
11,870,-0.004261123016477,0.042611226439476,-0.005326403304935,-0.833194911479950,-1.877082824707031,-8.547430038452148,26.33
11,871,-0.004261123016477,0.041545946151018,-0.007456964813173,-0.823617935180664,-1.872294425964355,-8.451661109924316,26.34
11,872,-0.004261123016477,0.042611226439476,-0.006391684990376,-0.823617935180664,-1.901025056838989,-8.494757652282714,26.35
11,873,-0.003195842495188,0.040480665862560,-0.004261123016477,-0.852348804473877,-1.857928872108459,-8.528276443481445,26.35
11,874,-0.003195842495188,0.040480665862560,-0.004261123016477,-0.852348804473877,-1.857928872108459,-8.528276443481445,26.35
11,875,-0.004261123016477,0.041545946151018,-0.006391684990376,-0.852348804473877,-1.848351955413818,-8.580949783325195,26.33
11,876,-0.003195842495188,0.041545946151018,-0.007456964813173,-0.804464042186737,-1.867505788803100,-8.552218437194824,26.33
11,877,-0.004261123016477,0.040480665862560,-0.005326403304935,-0.809252500534058,-1.853140473365784,-8.561796188354492,26.35
11,878,-0.004261123016477,0.042611226439476,-0.006391684990376,-0.823617935180664,-1.838774919509888,-8.580949783325195,26.35
11,879,-0.004261123016477,0.040480665862560,-0.006391684990376,-0.818829476833344,-1.886659741401672,-8.513911247253417,26.36
11,880,-0.005326403304935,0.041545946151018,-0.007456964813173,-0.861925780773163,-1.867505788803100,-8.585738182067871,26.33
11,881,-0.004261123016477,0.040480665862560,-0.006391684990376,-0.852348804473877,-1.862717270851135,-8.523488044738769,26.35
11,882,-0.004261123016477,0.040480665862560,-0.006391684990376,-0.852348804473877,-1.862717270851135,-8.523488044738769,26.35
11,883,-0.005326403304935,0.041545946151018,-0.006391684990376,-0.842771828174591,-1.857928872108459,-8.542641639709472,26.33
11,884,-0.004261123016477,0.040480665862560,-0.006391684990376,-0.852348804473877,-1.881871223449707,-8.528276443481445,26.35
11,885,-0.003195842495188,0.040480665862560,-0.004261123016477,-0.814041018486023,-1.853140473365784,-8.542641639709472,26.33
11,886,-0.004261123016477,0.040480665862560,-0.006391684990376,-0.833194911479950,-1.901025056838989,-8.537853240966796,26.36
11,887,-0.005326403304935,0.041545946151018,-0.006391684990376,-0.828406453132629,-1.843563318252563,-8.547430038452148,26.35
11,888,-0.004261123016477,0.041545946151018,-0.006391684990376,-0.823617935180664,-1.848351955413818,-8.571372985839843,26.34
11,889,-0.004261123016477,0.041545946151018,-0.006391684990376,-0.823617935180664,-1.848351955413818,-8.571372985839843,26.34
11,890,-0.003195842495188,0.041545946151018,-0.006391684990376,-0.866714239120483,-1.848351955413818,-8.576161384582519,26.36
11,891,-0.005326403304935,0.042611226439476,-0.006391684990376,-0.837983369827271,-1.833986520767212,-8.494757652282714,26.34
11,892,-0.004261123016477,0.041545946151018,-0.006391684990376,-0.842771828174591,-1.877082824707031,-8.489969253540039,26.34
11,893,-0.005326403304935,0.042611226439476,-0.006391684990376,-0.857137262821198,-1.848351955413818,-8.499546051025390,26.34
11,894,-0.005326403304935,0.041545946151018,-0.007456964813173,-0.818829476833344,-1.838774919509888,-8.494757652282714,26.33
11,895,-0.003195842495188,0.041545946151018,-0.007456964813173,-0.871502697467804,-1.891448259353638,-8.547430038452148,26.36
11,896,-0.004261123016477,0.041545946151018,-0.007456964813173,-0.837983369827271,-1.824409484863281,-8.528276443481445,26.34
11,897,-0.004261123016477,0.041545946151018,-0.007456964813173,-0.837983369827271,-1.824409484863281,-8.528276443481445,26.34
11,898,-0.004261123016477,0.042611226439476,-0.005326403304935,-0.818829476833344,-1.857928872108459,-8.533064842224121,26.32
11,899,-0.004261123016477,0.040480665862560,-0.007456964813173,-0.890656650066376,-1.877082824707031,-8.533064842224121,26.33
11,900,-0.003195842495188,0.041545946151018,-0.006391684990376,-0.876291215419769,-1.857928872108459,-8.542641639709472,26.34
11,901,-0.003195842495188,0.040480665862560,-0.005326403304935,-0.828406453132629,-1.886659741401672,-8.509122848510742,26.35
11,902,-0.004261123016477,0.041545946151018,-0.007456964813173,-0.823617935180664,-1.886659741401672,-8.537853240966796,26.34
11,903,-0.005326403304935,0.041545946151018,-0.006391684990376,-0.866714239120483,-1.881871223449707,-8.470814704895019,26.34
11,904,-0.005326403304935,0.041545946151018,-0.006391684990376,-0.866714239120483,-1.881871223449707,-8.470814704895019,26.34
11,905,-0.005326403304935,0.040480665862560,-0.007456964813173,-0.837983369827271,-1.877082824707031,-8.528276443481445,26.33
11,906,-0.004261123016477,0.041545946151018,-0.006391684990376,-0.837983369827271,-1.905813574790954,-8.528276443481445,26.33
11,907,-0.004261123016477,0.040480665862560,-0.006391684990376,-0.847560346126556,-1.867505788803100,-8.576161384582519,26.33
11,908,-0.004261123016477,0.041545946151018,-0.007456964813173,-0.866714239120483,-1.872294425964355,-8.542641639709472,26.35
11,909,-0.004261123016477,0.041545946151018,-0.006391684990376,-0.837983369827271,-1.877082824707031,-8.542641639709472,26.36
11,910,-0.004261123016477,0.041545946151018,-0.005326403304935,-0.857137262821198,-1.814832687377930,-8.518699645996093,26.34
11,911,-0.004261123016477,0.041545946151018,-0.005326403304935,-0.857137262821198,-1.814832687377930,-8.518699645996093,26.34
11,912,-0.004261123016477,0.041545946151018,-0.006391684990376,-0.833194911479950,-1.886659741401672,-8.528276443481445,26.34
11,913,-0.004261123016477,0.041545946151018,-0.006391684990376,-0.857137262821198,-1.867505788803100,-8.537853240966796,26.34
11,914,-0.005326403304935,0.041545946151018,-0.006391684990376,-0.847560346126556,-1.848351955413818,-8.485180854797363,26.33
11,915,-0.005326403304935,0.041545946151018,-0.006391684990376,-0.866714239120483,-1.877082824707031,-8.485180854797363,26.36
11,916,-0.005326403304935,0.040480665862560,-0.006391684990376,-0.837983369827271,-1.872294425964355,-8.537853240966796,26.35
11,917,-0.005326403304935,0.042611226439476,-0.007456964813173,-0.833194911479950,-1.886659741401672,-8.561796188354492,26.35
11,918,-0.004261123016477,0.041545946151018,-0.005326403304935,-0.857137262821198,-1.867505788803100,-8.537853240966796,26.34
11,919,-0.004261123016477,0.041545946151018,-0.005326403304935,-0.857137262821198,-1.867505788803100,-8.537853240966796,26.34
11,920,-0.004261123016477,0.041545946151018,-0.006391684990376,-0.828406453132629,-1.867505788803100,-8.533064842224121,26.34
11,921,-0.004261123016477,0.042611226439476,-0.007456964813173,-0.847560346126556,-1.862717270851135,-8.513911247253417,26.35
11,922,-0.003195842495188,0.041545946151018,-0.006391684990376,-0.857137262821198,-1.872294425964355,-8.537853240966796,26.35
11,923,-0.004261123016477,0.041545946151018,-0.006391684990376,-0.890656650066376,-1.862717270851135,-8.480391502380371,26.35
11,924,-0.005326403304935,0.042611226439476,-0.006391684990376,-0.833194911479950,-1.867505788803100,-8.552218437194824,26.35
11,925,-0.004261123016477,0.040480665862560,-0.006391684990376,-0.890656650066376,-1.848351955413818,-8.499546051025390,26.33
11,926,-0.004261123016477,0.040480665862560,-0.006391684990376,-0.890656650066376,-1.848351955413818,-8.499546051025390,26.33
11,927,-0.005326403304935,0.041545946151018,-0.006391684990376,-0.842771828174591,-1.843563318252563,-8.509122848510742,26.35
11,928,-0.003195842495188,0.042611226439476,-0.007456964813173,-0.857137262821198,-1.857928872108459,-8.480391502380371,26.36
11,929,-0.004261123016477,0.040480665862560,-0.006391684990376,-0.847560346126556,-1.881871223449707,-8.504334449768066,26.37
11,930,-0.004261123016477,0.041545946151018,-0.006391684990376,-0.895445108413696,-1.872294425964355,-8.456449508666992,26.35
11,931,-0.004261123016477,0.041545946151018,-0.006391684990376,-0.842771828174591,-1.853140473365784,-8.537853240966796,26.34
11,932,-0.005326403304935,0.041545946151018,-0.007456964813173,-0.833194911479950,-1.862717270851135,-8.537853240966796,26.36
11,933,-0.005326403304935,0.041545946151018,-0.006391684990376,-0.861925780773163,-1.838774919509888,-8.504334449768066,26.35
11,934,-0.004261123016477,0.041545946151018,-0.007456964813173,-0.814041018486023,-1.872294425964355,-8.470814704895019,26.34
11,935,-0.005326403304935,0.041545946151018,-0.007456964813173,-0.885868132114410,-1.905813574790954,-8.533064842224121,26.35
11,936,-0.004261123016477,0.040480665862560,-0.005326403304935,-0.828406453132629,-1.886659741401672,-8.518699645996093,26.36
11,937,-0.004261123016477,0.042611226439476,-0.006391684990376,-0.818829476833344,-1.833986520767212,-8.528276443481445,26.36
11,938,-0.003195842495188,0.041545946151018,-0.006391684990376,-0.842771828174591,-1.877082824707031,-8.571372985839843,26.36
11,939,-0.005326403304935,0.041545946151018,-0.005326403304935,-0.842771828174591,-1.867505788803100,-8.518699645996093,26.35
11,940,-0.004261123016477,0.041545946151018,-0.006391684990376,-0.852348804473877,-1.862717270851135,-8.552218437194824,26.36
11,941,-0.004261123016477,0.041545946151018,-0.006391684990376,-0.852348804473877,-1.862717270851135,-8.552218437194824,26.36
11,942,-0.006391684990376,0.041545946151018,-0.007456964813173,-0.837983369827271,-1.848351955413818,-8.504334449768066,26.35
11,943,-0.003195842495188,0.041545946151018,-0.005326403304935,-0.828406453132629,-1.877082824707031,-8.518699645996093,26.35
11,944,-0.004261123016477,0.041545946151018,-0.007456964813173,-0.847560346126556,-1.848351955413818,-8.566584587097167,26.34
11,945,-0.004261123016477,0.041545946151018,-0.005326403304935,-0.828406453132629,-1.862717270851135,-8.533064842224121,26.35
11,946,-0.005326403304935,0.041545946151018,-0.006391684990376,-0.837983369827271,-1.853140473365784,-8.427718162536621,26.35
11,947,-0.004261123016477,0.040480665862560,-0.007456964813173,-0.804464042186737,-1.862717270851135,-8.480391502380371,26.34
11,948,-0.004261123016477,0.040480665862560,-0.007456964813173,-0.804464042186737,-1.862717270851135,-8.480391502380371,26.34
11,949,-0.004261123016477,0.040480665862560,-0.006391684990376,-0.847560346126556,-1.881871223449707,-8.470814704895019,26.35
11,950,-0.006391684990376,0.041545946151018,-0.005326403304935,-0.823617935180664,-1.857928872108459,-8.557006835937500,26.36
11,951,-0.005326403304935,0.041545946151018,-0.006391684990376,-0.857137262821198,-1.862717270851135,-8.494757652282714,26.35
11,952,-0.004261123016477,0.042611226439476,-0.007456964813173,-0.828406453132629,-1.853140473365784,-8.480391502380371,26.35
