imu,it,ex,ey,ez,ax,ay,az,temp
10,0,-0.010652806609869,-0.004261123016477,0.001065280754119,-8.820373535156250,0.780521690845490,-8.557006835937500,28.34
10,1,-0.008522246032953,-0.006391684990376,0.000000000000000,-8.777276992797851,0.790098607540131,-8.571372985839843,28.34
10,2,-0.008522246032953,-0.006391684990376,0.000000000000000,-8.777276992797851,0.790098607540131,-8.571372985839843,28.34
10,3,-0.011718087829649,-0.004261123016477,0.000000000000000,-8.796431541442871,0.818829476833344,-8.547430038452148,28.34
10,4,-0.008522246032953,-0.006391684990376,0.000000000000000,-8.834739685058593,0.747002303600311,-8.609681129455566,28.35
10,5,-0.011718087829649,-0.005326403304935,0.000000000000000,-8.844316482543945,0.761367738246918,-8.552218437194824,28.35
10,6,-0.008522246032953,-0.007456964813173,0.000000000000000,-8.810796737670898,0.780521690845490,-8.580949783325195,28.34
10,7,-0.010652806609869,-0.006391684990376,0.000000000000000,-8.786853790283203,0.785310149192810,-8.590526580810546,28.32
10,8,-0.010652806609869,-0.006391684990376,0.001065280754119,-8.815585136413574,0.775733172893524,-8.604892730712890,28.35
10,9,-0.010652806609869,-0.006391684990376,0.001065280754119,-8.815585136413574,0.775733172893524,-8.604892730712890,28.35
10,10,-0.009587527252734,-0.006391684990376,0.000000000000000,-8.820373535156250,0.732636928558350,-8.566584587097167,28.34
10,11,-0.011718087829649,-0.003195842495188,0.001065280754119,-8.815585136413574,0.770944714546204,-8.580949783325195,28.33
10,12,-0.009587527252734,-0.007456964813173,0.001065280754119,-8.796431541442871,0.747002303600311,-8.537853240966796,28.36
10,13,-0.011718087829649,-0.005326403304935,0.001065280754119,-8.815585136413574,0.775733172893524,-8.686296463012695,28.32
10,14,-0.009587527252734,-0.006391684990376,0.000000000000000,-8.801219940185546,0.780521690845490,-8.547430038452148,28.35
10,15,-0.008522246032953,-0.006391684990376,0.000000000000000,-8.853893280029296,0.766156256198883,-8.619257926940917,28.34
10,16,-0.010652806609869,-0.005326403304935,0.000000000000000,-8.815585136413574,0.775733172893524,-8.595314979553222,28.34
10,17,-0.010652806609869,-0.005326403304935,0.000000000000000,-8.815585136413574,0.775733172893524,-8.595314979553222,28.34
10,18,-0.010652806609869,-0.006391684990376,0.000000000000000,-8.806008338928222,0.770944714546204,-8.619257926940917,28.35
10,19,-0.009587527252734,-0.006391684990376,0.001065280754119,-8.796431541442871,0.761367738246918,-8.542641639709472,28.35
10,20,-0.009587527252734,-0.004261123016477,0.001065280754119,-8.815585136413574,0.747002303600311,-8.561796188354492,28.35
10,21,-0.010652806609869,-0.007456964813173,0.000000000000000,-8.806008338928222,0.814041018486023,-8.576161384582519,28.35
10,22,-0.010652806609869,-0.005326403304935,0.001065280754119,-8.810796737670898,0.766156256198883,-8.557006835937500,28.37
10,23,-0.009587527252734,-0.004261123016477,0.001065280754119,-8.815585136413574,0.804464042186737,-8.604892730712890,28.34
10,24,-0.009587527252734,-0.005326403304935,0.001065280754119,-8.844316482543945,0.790098607540131,-8.614469528198242,28.35
10,25,-0.009587527252734,-0.005326403304935,0.001065280754119,-8.844316482543945,0.790098607540131,-8.614469528198242,28.35
10,26,-0.011718087829649,-0.005326403304935,0.001065280754119,-8.815585136413574,0.766156256198883,-8.624046325683593,28.34
10,27,-0.009587527252734,-0.007456964813173,0.000000000000000,-8.820373535156250,0.780521690845490,-8.585738182067871,28.34
10,28,-0.010652806609869,-0.004261123016477,0.001065280754119,-8.825161933898925,0.775733172893524,-8.576161384582519,28.35
10,29,-0.008522246032953,-0.006391684990376,0.001065280754119,-8.810796737670898,0.756579279899597,-8.571372985839843,28.36
10,30,-0.009587527252734,-0.007456964813173,0.001065280754119,-8.839528083801269,0.761367738246918,-8.576161384582519,28.35
10,31,-0.011718087829649,-0.004261123016477,0.001065280754119,-8.839528083801269,0.756579279899597,-8.552218437194824,28.34
10,32,-0.009587527252734,-0.006391684990376,0.000000000000000,-8.786853790283203,0.747002303600311,-8.628834724426269,28.34
10,33,-0.011718087829649,-0.006391684990376,0.000000000000000,-8.801219940185546,0.770944714546204,-8.571372985839843,28.35
10,34,-0.008522246032953,-0.006391684990376,0.001065280754119,-8.815585136413574,0.775733172893524,-8.609681129455566,28.35
10,35,-0.011718087829649,-0.005326403304935,0.001065280754119,-8.839528083801269,0.747002303600311,-8.557006835937500,28.36
10,36,-0.009587527252734,-0.004261123016477,0.000000000000000,-8.796431541442871,0.751790821552277,-8.580949783325195,28.35
10,37,-0.011718087829649,-0.004261123016477,0.000000000000000,-8.810796737670898,0.737425386905670,-8.571372985839843,28.37
10,38,-0.007456964813173,-0.006391684990376,0.001065280754119,-8.825161933898925,0.766156256198883,-8.552218437194824,28.35
10,39,-0.011718087829649,-0.005326403304935,0.000000000000000,-8.829950332641601,0.785310149192810,-8.638411521911621,28.36
10,40,-0.011718087829649,-0.005326403304935,0.000000000000000,-8.829950332641601,0.785310149192810,-8.638411521911621,28.36
10,41,-0.012783369980752,-0.005326403304935,0.000000000000000,-8.806008338928222,0.770944714546204,-8.619257926940917,28.34
10,42,-0.009587527252734,-0.006391684990376,0.001065280754119,-8.806008338928222,0.742213845252991,-8.595314979553222,28.34
10,43,-0.009587527252734,-0.007456964813173,0.001065280754119,-8.849104881286621,0.751790821552277,-8.633623123168945,28.35
10,44,-0.011718087829649,-0.004261123016477,0.001065280754119,-8.801219940185546,0.770944714546204,-8.580949783325195,28.34
10,45,-0.008522246032953,-0.004261123016477,0.002130561508238,-8.806008338928222,0.756579279899597,-8.609681129455566,28.34
10,46,-0.011718087829649,-0.005326403304935,0.001065280754119,-8.810796737670898,0.766156256198883,-8.600103378295898,28.36
10,47,-0.008522246032953,-0.005326403304935,0.000000000000000,-8.791643142700195,0.751790821552277,-8.580949783325195,28.37
10,48,-0.008522246032953,-0.005326403304935,0.000000000000000,-8.791643142700195,0.751790821552277,-8.580949783325195,28.37
10,49,-0.007456964813173,-0.006391684990376,0.002130561508238,-8.786853790283203,0.814041018486023,-8.590526580810546,28.38
10,50,-0.011718087829649,-0.005326403304935,0.000000000000000,-8.844316482543945,0.742213845252991,-8.576161384582519,28.37
10,51,-0.008522246032953,-0.006391684990376,0.000000000000000,-8.810796737670898,0.780521690845490,-8.638411521911621,28.37
10,52,-0.011718087829649,-0.005326403304935,0.002130561508238,-8.858681678771972,0.809252500534058,-8.633623123168945,28.35
10,53,-0.008522246032953,-0.006391684990376,0.000000000000000,-8.806008338928222,0.737425386905670,-8.571372985839843,28.37
10,54,-0.010652806609869,-0.004261123016477,0.001065280754119,-8.820373535156250,0.775733172893524,-8.585738182067871,28.34
10,55,-0.010652806609869,-0.006391684990376,0.002130561508238,-8.786853790283203,0.723059952259064,-8.518699645996093,28.36
10,56,-0.010652806609869,-0.006391684990376,0.002130561508238,-8.786853790283203,0.723059952259064,-8.518699645996093,28.36
10,57,-0.011718087829649,-0.005326403304935,0.001065280754119,-8.806008338928222,0.775733172893524,-8.604892730712890,28.34
10,58,-0.007456964813173,-0.006391684990376,0.000000000000000,-8.820373535156250,0.790098607540131,-8.518699645996093,28.34
10,59,-0.012783369980752,-0.005326403304935,0.001065280754119,-8.796431541442871,0.742213845252991,-8.604892730712890,28.34
10,60,-0.007456964813173,-0.006391684990376,0.000000000000000,-8.777276992797851,0.747002303600311,-8.609681129455566,28.36
10,61,-0.010652806609869,-0.004261123016477,0.001065280754119,-8.839528083801269,0.775733172893524,-8.590526580810546,28.36
10,62,-0.008522246032953,-0.006391684990376,-0.001065280754119,-8.782065391540527,0.775733172893524,-8.576161384582519,28.36
10,63,-0.010652806609869,-0.005326403304935,0.002130561508238,-8.806008338928222,0.766156256198883,-8.576161384582519,28.36
10,64,-0.009587527252734,-0.005326403304935,0.000000000000000,-8.786853790283203,0.761367738246918,-8.590526580810546,28.34
10,65,-0.010652806609869,-0.004261123016477,0.002130561508238,-8.844316482543945,0.742213845252991,-8.628834724426269,28.37
10,66,-0.008522246032953,-0.006391684990376,0.000000000000000,-8.820373535156250,0.747002303600311,-8.614469528198242,28.35
10,67,-0.009587527252734,-0.005326403304935,0.001065280754119,-8.806008338928222,0.770944714546204,-8.561796188354492,28.37
10,68,-0.009587527252734,-0.006391684990376,0.000000000000000,-8.786853790283203,0.727848410606384,-8.633623123168945,28.36
10,69,-0.008522246032953,-0.007456964813173,0.001065280754119,-8.839528083801269,0.751790821552277,-8.671930313110351,28.36
10,70,-0.010652806609869,-0.005326403304935,0.000000000000000,-8.810796737670898,0.766156256198883,-8.600103378295898,28.35
10,71,-0.010652806609869,-0.005326403304935,0.000000000000000,-8.810796737670898,0.766156256198883,-8.600103378295898,28.35
10,72,-0.011718087829649,-0.005326403304935,0.000000000000000,-8.868258476257324,0.785310149192810,-8.557006835937500,28.37
10,73,-0.008522246032953,-0.006391684990376,0.000000000000000,-8.753334999084472,0.751790821552277,-8.557006835937500,28.37
10,74,-0.010652806609869,-0.005326403304935,0.000000000000000,-8.810796737670898,0.770944714546204,-8.686296463012695,28.36
10,75,-0.009587527252734,-0.006391684990376,0.000000000000000,-8.815585136413574,0.742213845252991,-8.590526580810546,28.37
10,76,-0.010652806609869,-0.005326403304935,0.001065280754119,-8.834739685058593,0.804464042186737,-8.628834724426269,28.37
10,77,-0.009587527252734,-0.005326403304935,0.000000000000000,-8.777276992797851,0.790098607540131,-8.590526580810546,28.37
10,78,-0.010652806609869,-0.005326403304935,0.001065280754119,-8.825161933898925,0.751790821552277,-8.533064842224121,28.36
10,79,-0.010652806609869,-0.005326403304935,0.001065280754119,-8.825161933898925,0.751790821552277,-8.533064842224121,28.36
10,80,-0.008522246032953,-0.004261123016477,0.001065280754119,-8.791643142700195,0.794887065887451,-8.580949783325195,28.37
10,81,-0.009587527252734,-0.007456964813173,0.000000000000000,-8.786853790283203,0.775733172893524,-8.542641639709472,28.37
10,82,-0.010652806609869,-0.004261123016477,0.000000000000000,-8.858681678771972,0.780521690845490,-8.614469528198242,28.33
10,83,-0.010652806609869,-0.005326403304935,0.001065280754119,-8.825161933898925,0.770944714546204,-8.633623123168945,28.36
10,84,-0.008522246032953,-0.007456964813173,0.000000000000000,-8.815585136413574,0.770944714546204,-8.466026306152343,28.37
10,85,-0.010652806609869,-0.005326403304935,0.001065280754119,-8.825161933898925,0.770944714546204,-8.595314979553222,28.37
10,86,-0.008522246032953,-0.007456964813173,0.000000000000000,-8.829950332641601,0.761367738246918,-8.566584587097167,28.36
10,87,-0.008522246032953,-0.007456964813173,0.000000000000000,-8.829950332641601,0.761367738246918,-8.566584587097167,28.36
10,88,-0.009587527252734,-0.005326403304935,0.000000000000000,-8.782065391540527,0.804464042186737,-8.628834724426269,28.35
10,89,-0.010652806609869,-0.006391684990376,0.001065280754119,-8.815585136413574,0.756579279899597,-8.628834724426269,28.35
10,90,-0.009587527252734,-0.005326403304935,0.001065280754119,-8.777276992797851,0.727848410606384,-8.604892730712890,28.37
10,91,-0.010652806609869,-0.006391684990376,0.001065280754119,-8.796431541442871,0.737425386905670,-8.557006835937500,28.37
10,92,-0.009587527252734,-0.006391684990376,0.000000000000000,-8.806008338928222,0.761367738246918,-8.557006835937500,28.35
10,93,-0.010652806609869,-0.004261123016477,0.001065280754119,-8.801219940185546,0.766156256198883,-8.571372985839843,28.37
10,94,-0.008522246032953,-0.005326403304935,0.000000000000000,-8.791643142700195,0.713482975959778,-8.609681129455566,28.36
10,95,-0.008522246032953,-0.005326403304935,0.000000000000000,-8.791643142700195,0.713482975959778,-8.609681129455566,28.36
10,96,-0.009587527252734,-0.004261123016477,-0.001065280754119,-8.806008338928222,0.742213845252991,-8.576161384582519,28.37
10,97,-0.009587527252734,-0.005326403304935,0.000000000000000,-8.810796737670898,0.770944714546204,-8.571372985839843,28.38
10,98,-0.010652806609869,-0.004261123016477,0.001065280754119,-8.829950332641601,0.756579279899597,-8.638411521911621,28.39
10,99,-0.008522246032953,-0.005326403304935,0.000000000000000,-8.829950332641601,0.766156256198883,-8.619257926940917,28.37
10,100,-0.011718087829649,-0.005326403304935,0.002130561508238,-8.815585136413574,0.737425386905670,-8.590526580810546,28.37
10,101,-0.009587527252734,-0.006391684990376,0.000000000000000,-8.753334999084472,0.761367738246918,-8.533064842224121,28.36
10,102,-0.009587527252734,-0.006391684990376,0.000000000000000,-8.753334999084472,0.761367738246918,-8.533064842224121,28.36
10,103,-0.009587527252734,-0.005326403304935,0.000000000000000,-8.772488594055175,0.780521690845490,-8.523488044738769,28.37
10,104,-0.010652806609869,-0.006391684990376,0.000000000000000,-8.810796737670898,0.780521690845490,-8.604892730712890,28.37
10,105,-0.009587527252734,-0.005326403304935,0.001065280754119,-8.772488594055175,0.699117541313171,-8.609681129455566,28.38
10,106,-0.010652806609869,-0.004261123016477,0.001065280754119,-8.829950332641601,0.785310149192810,-8.557006835937500,28.37
10,107,-0.008522246032953,-0.006391684990376,0.001065280754119,-8.801219940185546,0.737425386905670,-8.600103378295898,28.35
10,108,-0.009587527252734,-0.006391684990376,-0.001065280754119,-8.834739685058593,0.790098607540131,-8.609681129455566,28.37
10,109,-0.008522246032953,-0.006391684990376,0.000000000000000,-8.825161933898925,0.737425386905670,-8.552218437194824,28.36
10,110,-0.008522246032953,-0.006391684990376,0.000000000000000,-8.825161933898925,0.737425386905670,-8.552218437194824,28.36
10,111,-0.011718087829649,-0.004261123016477,0.001065280754119,-8.806008338928222,0.785310149192810,-8.604892730712890,28.36
10,112,-0.009587527252734,-0.006391684990376,0.000000000000000,-8.791643142700195,0.756579279899597,-8.537853240966796,28.35
10,113,-0.011718087829649,-0.004261123016477,0.001065280754119,-8.786853790283203,0.761367738246918,-8.624046325683593,28.37
10,114,-0.007456964813173,-0.007456964813173,0.000000000000000,-8.810796737670898,0.747002303600311,-8.662353515625000,28.37
10,115,-0.011718087829649,-0.004261123016477,0.000000000000000,-8.834739685058593,0.780521690845490,-8.542641639709472,28.37
10,116,-0.008522246032953,-0.005326403304935,0.000000000000000,-8.801219940185546,0.761367738246918,-8.667141914367675,28.37
10,117,-0.010652806609869,-0.004261123016477,0.000000000000000,-8.796431541442871,0.751790821552277,-8.633623123168945,28.36
10,118,-0.010652806609869,-0.004261123016477,0.000000000000000,-8.796431541442871,0.751790821552277,-8.633623123168945,28.36
10,119,-0.009587527252734,-0.005326403304935,0.000000000000000,-8.786853790283203,0.770944714546204,-8.547430038452148,28.39
10,120,-0.009587527252734,-0.004261123016477,0.000000000000000,-8.853893280029296,0.761367738246918,-8.638411521911621,28.34
10,121,-0.011718087829649,-0.005326403304935,-0.001065280754119,-8.806008338928222,0.756579279899597,-8.643199920654296,28.37
10,122,-0.009587527252734,-0.004261123016477,0.001065280754119,-8.834739685058593,0.794887065887451,-8.552218437194824,28.37
10,123,-0.009587527252734,-0.006391684990376,0.000000000000000,-8.777276992797851,0.756579279899597,-8.619257926940917,28.35
10,124,-0.010652806609869,-0.004261123016477,0.001065280754119,-8.834739685058593,0.761367738246918,-8.576161384582519,28.37
10,125,-0.007456964813173,-0.006391684990376,0.001065280754119,-8.772488594055175,0.727848410606384,-8.619257926940917,28.34
10,126,-0.007456964813173,-0.006391684990376,0.001065280754119,-8.772488594055175,0.727848410606384,-8.619257926940917,28.34
10,127,-0.008522246032953,-0.007456964813173,0.000000000000000,-8.853893280029296,0.727848410606384,-8.628834724426269,28.36
10,128,-0.013848649337888,-0.004261123016477,-0.001065280754119,-8.786853790283203,0.809252500534058,-8.604892730712890,28.36
10,129,-0.009587527252734,-0.005326403304935,0.001065280754119,-8.815585136413574,0.747002303600311,-8.561796188354492,28.36
10,130,-0.009587527252734,-0.005326403304935,-0.001065280754119,-8.810796737670898,0.799675583839417,-8.513911247253417,28.37
10,131,-0.008522246032953,-0.004261123016477,0.002130561508238,-8.829950332641601,0.790098607540131,-8.624046325683593,28.37
10,132,-0.009587527252734,-0.006391684990376,0.000000000000000,-8.825161933898925,0.775733172893524,-8.600103378295898,28.36
10,133,-0.009587527252734,-0.006391684990376,0.000000000000000,-8.825161933898925,0.775733172893524,-8.600103378295898,28.36
10,134,-0.009587527252734,-0.004261123016477,0.000000000000000,-8.820373535156250,0.804464042186737,-8.566584587097167,28.39
10,135,-0.010652806609869,-0.006391684990376,0.001065280754119,-8.834739685058593,0.747002303600311,-8.604892730712890,28.37
10,136,-0.009587527252734,-0.005326403304935,0.000000000000000,-8.801219940185546,0.780521690845490,-8.614469528198242,28.35
10,137,-0.010652806609869,-0.004261123016477,-0.001065280754119,-8.820373535156250,0.737425386905670,-8.619257926940917,28.35
10,138,-0.008522246032953,-0.007456964813173,0.000000000000000,-8.796431541442871,0.761367738246918,-8.595314979553222,28.37
10,139,-0.011718087829649,-0.004261123016477,0.001065280754119,-8.806008338928222,0.780521690845490,-8.624046325683593,28.34
10,140,-0.007456964813173,-0.005326403304935,0.000000000000000,-8.810796737670898,0.751790821552277,-8.643199920654296,28.36
10,141,-0.007456964813173,-0.005326403304935,0.000000000000000,-8.810796737670898,0.751790821552277,-8.643199920654296,28.36
10,142,-0.008522246032953,-0.005326403304935,0.002130561508238,-8.820373535156250,0.723059952259064,-8.576161384582519,28.36
10,143,-0.010652806609869,-0.006391684990376,0.001065280754119,-8.839528083801269,0.809252500534058,-8.537853240966796,28.37
10,144,-0.009587527252734,-0.006391684990376,0.001065280754119,-8.825161933898925,0.747002303600311,-8.585738182067871,28.37
10,145,-0.009587527252734,-0.004261123016477,0.001065280754119,-8.825161933898925,0.756579279899597,-8.628834724426269,28.36
10,146,-0.010652806609869,-0.006391684990376,0.000000000000000,-8.829950332641601,0.785310149192810,-8.628834724426269,28.36
10,147,-0.009587527252734,-0.005326403304935,0.000000000000000,-8.820373535156250,0.780521690845490,-8.667141914367675,28.37
10,148,-0.008522246032953,-0.006391684990376,0.001065280754119,-8.844316482543945,0.761367738246918,-8.628834724426269,28.37
10,149,-0.008522246032953,-0.006391684990376,0.001065280754119,-8.844316482543945,0.761367738246918,-8.628834724426269,28.37
10,150,-0.009587527252734,-0.004261123016477,0.001065280754119,-8.820373535156250,0.756579279899597,-8.614469528198242,28.37
10,151,-0.008522246032953,-0.005326403304935,0.000000000000000,-8.777276992797851,0.766156256198883,-8.590526580810546,28.37
10,152,-0.011718087829649,-0.006391684990376,0.002130561508238,-8.796431541442871,0.785310149192810,-8.600103378295898,28.37
10,153,-0.008522246032953,-0.005326403304935,0.001065280754119,-8.782065391540527,0.770944714546204,-8.600103378295898,28.38
10,154,-0.012783369980752,-0.005326403304935,0.000000000000000,-8.829950332641601,0.809252500534058,-8.561796188354492,28.37
10,155,-0.006391684990376,-0.006391684990376,0.001065280754119,-8.810796737670898,0.766156256198883,-8.585738182067871,28.36
10,156,-0.010652806609869,-0.004261123016477,0.000000000000000,-8.801219940185546,0.799675583839417,-8.542641639709472,28.36
10,157,-0.010652806609869,-0.004261123016477,0.000000000000000,-8.801219940185546,0.799675583839417,-8.542641639709472,28.36
10,158,-0.009587527252734,-0.005326403304935,-0.001065280754119,-8.772488594055175,0.766156256198883,-8.595314979553222,28.36
10,159,-0.009587527252734,-0.005326403304935,0.000000000000000,-8.853893280029296,0.790098607540131,-8.638411521911621,28.37
10,160,-0.010652806609869,-0.005326403304935,0.000000000000000,-8.810796737670898,0.818829476833344,-8.619257926940917,28.36
10,161,-0.009587527252734,-0.005326403304935,-0.001065280754119,-8.834739685058593,0.747002303600311,-8.614469528198242,28.37
10,162,-0.010652806609869,-0.004261123016477,0.001065280754119,-8.777276992797851,0.794887065887451,-8.590526580810546,28.39
10,163,-0.010652806609869,-0.005326403304935,0.002130561508238,-8.815585136413574,0.708694517612457,-8.566584587097167,28.37
10,164,-0.010652806609869,-0.005326403304935,0.002130561508238,-8.815585136413574,0.708694517612457,-8.566584587097167,28.37
10,165,-0.012783369980752,-0.006391684990376,0.001065280754119,-8.834739685058593,0.756579279899597,-8.671930313110351,28.37
10,166,-0.007456964813173,-0.007456964813173,0.001065280754119,-8.796431541442871,0.766156256198883,-8.604892730712890,28.36
10,167,-0.011718087829649,-0.004261123016477,0.000000000000000,-8.786853790283203,0.790098607540131,-8.600103378295898,28.37
10,168,-0.006391684990376,-0.006391684990376,0.001065280754119,-8.796431541442871,0.761367738246918,-8.561796188354492,28.37
10,169,-0.012783369980752,-0.005326403304935,0.000000000000000,-8.825161933898925,0.780521690845490,-8.647988319396972,28.36
10,170,-0.008522246032953,-0.006391684990376,0.000000000000000,-8.810796737670898,0.761367738246918,-8.638411521911621,28.38
10,171,-0.009587527252734,-0.004261123016477,-0.001065280754119,-8.806008338928222,0.775733172893524,-8.686296463012695,28.37
10,172,-0.009587527252734,-0.004261123016477,-0.001065280754119,-8.806008338928222,0.775733172893524,-8.686296463012695,28.37
10,173,-0.008522246032953,-0.005326403304935,0.000000000000000,-8.796431541442871,0.780521690845490,-8.566584587097167,28.38
10,174,-0.010652806609869,-0.005326403304935,0.001065280754119,-8.849104881286621,0.780521690845490,-8.585738182067871,28.37
10,175,-0.010652806609869,-0.006391684990376,0.000000000000000,-8.810796737670898,0.775733172893524,-8.619257926940917,28.38
10,176,-0.010652806609869,-0.005326403304935,0.000000000000000,-8.834739685058593,0.747002303600311,-8.590526580810546,28.37
10,177,-0.008522246032953,-0.006391684990376,0.000000000000000,-8.815585136413574,0.804464042186737,-8.542641639709472,28.38
10,178,-0.010652806609869,-0.005326403304935,0.001065280754119,-8.786853790283203,0.794887065887451,-8.595314979553222,28.36
10,179,-0.006391684990376,-0.007456964813173,0.000000000000000,-8.806008338928222,0.770944714546204,-8.590526580810546,28.37
10,180,-0.006391684990376,-0.007456964813173,0.000000000000000,-8.806008338928222,0.770944714546204,-8.590526580810546,28.37
10,181,-0.007456964813173,-0.005326403304935,0.000000000000000,-8.791643142700195,0.780521690845490,-8.571372985839843,28.38
10,182,-0.011718087829649,-0.003195842495188,0.000000000000000,-8.815585136413574,0.780521690845490,-8.576161384582519,28.36
10,183,-0.009587527252734,-0.006391684990376,0.000000000000000,-8.791643142700195,0.756579279899597,-8.604892730712890,28.36
10,184,-0.010652806609869,-0.006391684990376,0.001065280754119,-8.825161933898925,0.775733172893524,-8.595314979553222,28.38
10,185,-0.009587527252734,-0.005326403304935,0.002130561508238,-8.810796737670898,0.732636928558350,-8.600103378295898,28.37
10,186,-0.009587527252734,-0.005326403304935,0.000000000000000,-8.786853790283203,0.775733172893524,-8.523488044738769,28.39
10,187,-0.009587527252734,-0.005326403304935,0.001065280754119,-8.820373535156250,0.770944714546204,-8.585738182067871,28.36
10,188,-0.009587527252734,-0.005326403304935,0.001065280754119,-8.820373535156250,0.770944714546204,-8.585738182067871,28.36
10,189,-0.009587527252734,-0.006391684990376,0.001065280754119,-8.853893280029296,0.785310149192810,-8.633623123168945,28.37
10,190,-0.010652806609869,-0.007456964813173,0.000000000000000,-8.782065391540527,0.785310149192810,-8.647988319396972,28.39
10,191,-0.008522246032953,-0.004261123016477,0.002130561508238,-8.825161933898925,0.756579279899597,-8.614469528198242,28.38
10,192,-0.009587527252734,-0.007456964813173,0.000000000000000,-8.806008338928222,0.756579279899597,-8.566584587097167,28.37
10,193,-0.011718087829649,-0.004261123016477,0.001065280754119,-8.810796737670898,0.766156256198883,-8.590526580810546,28.39
10,194,-0.007456964813173,-0.006391684990376,0.000000000000000,-8.777276992797851,0.737425386905670,-8.633623123168945,28.36
10,195,-0.007456964813173,-0.006391684990376,0.000000000000000,-8.777276992797851,0.737425386905670,-8.633623123168945,28.36
10,196,-0.008522246032953,-0.005326403304935,0.001065280754119,-8.806008338928222,0.761367738246918,-8.643199920654296,28.38
10,197,-0.009587527252734,-0.006391684990376,0.001065280754119,-8.829950332641601,0.766156256198883,-8.571372985839843,28.38
10,198,-0.009587527252734,-0.006391684990376,0.001065280754119,-8.849104881286621,0.742213845252991,-8.580949783325195,28.37
10,199,-0.009587527252734,-0.005326403304935,0.001065280754119,-8.767700195312500,0.756579279899597,-8.571372985839843,28.39
10,200,-0.010652806609869,-0.005326403304935,0.001065280754119,-8.820373535156250,0.809252500534058,-8.628834724426269,28.40
10,201,-0.008522246032953,-0.006391684990376,0.001065280754119,-8.772488594055175,0.794887065887451,-8.537853240966796,28.37
10,202,-0.010652806609869,-0.005326403304935,0.001065280754119,-8.829950332641601,0.737425386905670,-8.633623123168945,28.37
10,203,-0.010652806609869,-0.005326403304935,0.001065280754119,-8.829950332641601,0.737425386905670,-8.633623123168945,28.37
10,204,-0.009587527252734,-0.005326403304935,0.001065280754119,-8.839528083801269,0.775733172893524,-8.619257926940917,28.40
10,205,-0.009587527252734,-0.005326403304935,0.001065280754119,-8.820373535156250,0.770944714546204,-8.600103378295898,28.37
10,206,-0.011718087829649,-0.006391684990376,0.001065280754119,-8.825161933898925,0.761367738246918,-8.609681129455566,28.37
10,207,-0.007456964813173,-0.005326403304935,0.001065280754119,-8.849104881286621,0.756579279899597,-8.600103378295898,28.38
10,208,-0.012783369980752,-0.006391684990376,0.000000000000000,-8.810796737670898,0.799675583839417,-8.609681129455566,28.37
10,209,-0.007456964813173,-0.006391684990376,0.001065280754119,-8.844316482543945,0.775733172893524,-8.576161384582519,28.39
10,210,-0.010652806609869,-0.005326403304935,0.001065280754119,-8.801219940185546,0.799675583839417,-8.647988319396972,28.38
10,211,-0.010652806609869,-0.005326403304935,0.001065280754119,-8.801219940185546,0.799675583839417,-8.647988319396972,28.38
10,212,-0.010652806609869,-0.005326403304935,0.000000000000000,-8.806008338928222,0.761367738246918,-8.590526580810546,28.37
10,213,-0.010652806609869,-0.006391684990376,0.001065280754119,-8.796431541442871,0.790098607540131,-8.614469528198242,28.38
10,214,-0.008522246032953,-0.005326403304935,-0.001065280754119,-8.863470077514648,0.756579279899597,-8.528276443481445,28.39
10,215,-0.009587527252734,-0.007456964813173,-0.001065280754119,-8.849104881286621,0.794887065887451,-8.614469528198242,28.40
10,216,-0.008522246032953,-0.005326403304935,0.001065280754119,-8.815585136413574,0.756579279899597,-8.547430038452148,28.36
10,217,-0.011718087829649,-0.005326403304935,0.000000000000000,-8.825161933898925,0.799675583839417,-8.624046325683593,28.38
10,218,-0.008522246032953,-0.005326403304935,0.001065280754119,-8.820373535156250,0.770944714546204,-8.590526580810546,28.35
10,219,-0.008522246032953,-0.005326403304935,0.001065280754119,-8.820373535156250,0.770944714546204,-8.590526580810546,28.35
10,220,-0.007456964813173,-0.005326403304935,0.001065280754119,-8.849104881286621,0.756579279899597,-8.566584587097167,28.35
10,221,-0.011718087829649,-0.005326403304935,0.001065280754119,-8.801219940185546,0.809252500534058,-8.633623123168945,28.37
10,222,-0.007456964813173,-0.005326403304935,0.000000000000000,-8.801219940185546,0.737425386905670,-8.647988319396972,28.38
10,223,-0.012783369980752,-0.005326403304935,0.000000000000000,-8.791643142700195,0.823617935180664,-8.576161384582519,28.37
10,224,-0.007456964813173,-0.005326403304935,0.001065280754119,-8.786853790283203,0.747002303600311,-8.600103378295898,28.39
10,225,-0.010652806609869,-0.005326403304935,0.001065280754119,-8.815585136413574,0.737425386905670,-8.600103378295898,28.38
10,226,-0.010652806609869,-0.005326403304935,0.001065280754119,-8.815585136413574,0.737425386905670,-8.600103378295898,28.38
10,227,-0.008522246032953,-0.006391684990376,0.000000000000000,-8.806008338928222,0.770944714546204,-8.595314979553222,28.40
10,228,-0.011718087829649,-0.005326403304935,0.002130561508238,-8.873046875000000,0.799675583839417,-8.647988319396972,28.37
10,229,-0.008522246032953,-0.006391684990376,0.000000000000000,-8.815585136413574,0.770944714546204,-8.533064842224121,28.38
10,230,-0.011718087829649,-0.005326403304935,0.000000000000000,-8.820373535156250,0.761367738246918,-8.595314979553222,28.37
10,231,-0.008522246032953,-0.006391684990376,0.000000000000000,-8.782065391540527,0.790098607540131,-8.547430038452148,28.40
10,232,-0.011718087829649,-0.006391684990376,0.001065280754119,-8.829950332641601,0.790098607540131,-8.561796188354492,28.36
10,233,-0.008522246032953,-0.005326403304935,0.000000000000000,-8.820373535156250,0.766156256198883,-8.643199920654296,28.37
10,234,-0.008522246032953,-0.005326403304935,0.000000000000000,-8.820373535156250,0.766156256198883,-8.643199920654296,28.37
10,235,-0.008522246032953,-0.006391684990376,0.000000000000000,-8.825161933898925,0.751790821552277,-8.561796188354492,28.38
10,236,-0.011718087829649,-0.006391684990376,0.000000000000000,-8.806008338928222,0.790098607540131,-8.595314979553222,28.37
10,237,-0.009587527252734,-0.007456964813173,0.000000000000000,-8.796431541442871,0.751790821552277,-8.657565116882324,28.40
10,238,-0.008522246032953,-0.005326403304935,-0.001065280754119,-8.762911796569824,0.785310149192810,-8.571372985839843,28.37
10,239,-0.009587527252734,-0.004261123016477,0.001065280754119,-8.825161933898925,0.775733172893524,-8.619257926940917,28.36
10,240,-0.008522246032953,-0.006391684990376,-0.001065280754119,-8.782065391540527,0.809252500534058,-8.585738182067871,28.38
10,241,-0.011718087829649,-0.004261123016477,0.001065280754119,-8.853893280029296,0.742213845252991,-8.667141914367675,28.40
10,242,-0.011718087829649,-0.004261123016477,0.001065280754119,-8.853893280029296,0.742213845252991,-8.667141914367675,28.40
10,243,-0.011718087829649,-0.006391684990376,0.000000000000000,-8.853893280029296,0.775733172893524,-8.590526580810546,28.36
10,244,-0.008522246032953,-0.006391684990376,-0.001065280754119,-8.801219940185546,0.770944714546204,-8.576161384582519,28.40
10,245,-0.010652806609869,-0.006391684990376,0.000000000000000,-8.834739685058593,0.780521690845490,-8.552218437194824,28.38
10,246,-0.009587527252734,-0.005326403304935,0.001065280754119,-8.815585136413574,0.790098607540131,-8.628834724426269,28.38
10,247,-0.010652806609869,-0.006391684990376,0.000000000000000,-8.806008338928222,0.775733172893524,-8.571372985839843,28.37
10,248,-0.008522246032953,-0.006391684990376,0.000000000000000,-8.844316482543945,0.747002303600311,-8.552218437194824,28.39
10,249,-0.010652806609869,-0.005326403304935,0.001065280754119,-8.815585136413574,0.780521690845490,-8.580949783325195,28.38
10,250,-0.010652806609869,-0.005326403304935,0.001065280754119,-8.815585136413574,0.780521690845490,-8.580949783325195,28.38
10,251,-0.009587527252734,-0.007456964813173,0.001065280754119,-8.810796737670898,0.794887065887451,-8.600103378295898,28.37
10,252,-0.010652806609869,-0.005326403304935,0.001065280754119,-8.815585136413574,0.766156256198883,-8.580949783325195,28.37
10,253,-0.009587527252734,-0.005326403304935,0.000000000000000,-8.777276992797851,0.751790821552277,-8.552218437194824,28.39
10,254,-0.012783369980752,-0.004261123016477,0.001065280754119,-8.810796737670898,0.751790821552277,-8.614469528198242,28.38
10,255,-0.008522246032953,-0.007456964813173,0.001065280754119,-8.786853790283203,0.756579279899597,-8.576161384582519,28.39
10,256,-0.010652806609869,-0.006391684990376,0.001065280754119,-8.839528083801269,0.761367738246918,-8.585738182067871,28.40
10,257,-0.010652806609869,-0.006391684990376,0.001065280754119,-8.839528083801269,0.761367738246918,-8.585738182067871,28.40
10,258,-0.010652806609869,-0.006391684990376,0.000000000000000,-8.820373535156250,0.747002303600311,-8.643199920654296,28.39
10,259,-0.009587527252734,-0.006391684990376,0.000000000000000,-8.839528083801269,0.751790821552277,-8.652776718139648,28.39
10,260,-0.010652806609869,-0.005326403304935,0.001065280754119,-8.796431541442871,0.780521690845490,-8.614469528198242,28.38
10,261,-0.010652806609869,-0.005326403304935,0.001065280754119,-8.820373535156250,0.732636928558350,-8.662353515625000,28.39
10,262,-0.010652806609869,-0.005326403304935,0.000000000000000,-8.839528083801269,0.770944714546204,-8.604892730712890,28.37
10,263,-0.008522246032953,-0.006391684990376,0.001065280754119,-8.810796737670898,0.727848410606384,-8.590526580810546,28.38
10,264,-0.010652806609869,-0.005326403304935,0.001065280754119,-8.820373535156250,0.761367738246918,-8.590526580810546,28.39
10,265,-0.010652806609869,-0.005326403304935,0.001065280754119,-8.820373535156250,0.761367738246918,-8.590526580810546,28.39
10,266,-0.011718087829649,-0.006391684990376,0.000000000000000,-8.806008338928222,0.775733172893524,-8.537853240966796,28.38
10,267,-0.011718087829649,-0.004261123016477,0.000000000000000,-8.815585136413574,0.732636928558350,-8.576161384582519,28.38
10,268,-0.008522246032953,-0.007456964813173,-0.001065280754119,-8.815585136413574,0.794887065887451,-8.552218437194824,28.39
10,269,-0.012783369980752,-0.004261123016477,0.000000000000000,-8.829950332641601,0.756579279899597,-8.585738182067871,28.37
10,270,-0.008522246032953,-0.006391684990376,0.000000000000000,-8.810796737670898,0.761367738246918,-8.609681129455566,28.37
10,271,-0.009587527252734,-0.005326403304935,0.001065280754119,-8.844316482543945,0.775733172893524,-8.571372985839843,28.39
10,272,-0.009587527252734,-0.006391684990376,0.000000000000000,-8.767700195312500,0.780521690845490,-8.628834724426269,28.39
10,273,-0.009587527252734,-0.006391684990376,0.000000000000000,-8.767700195312500,0.780521690845490,-8.628834724426269,28.39
10,274,-0.009587527252734,-0.006391684990376,0.000000000000000,-8.868258476257324,0.775733172893524,-8.595314979553222,28.39
10,275,-0.010652806609869,-0.004261123016477,0.000000000000000,-8.782065391540527,0.828406453132629,-8.571372985839843,28.40
10,276,-0.007456964813173,-0.006391684990376,0.001065280754119,-8.853893280029296,0.732636928558350,-8.614469528198242,28.39
10,277,-0.010652806609869,-0.005326403304935,0.000000000000000,-8.791643142700195,0.756579279899597,-8.566584587097167,28.37
10,278,-0.008522246032953,-0.005326403304935,0.001065280754119,-8.796431541442871,0.751790821552277,-8.633623123168945,28.38
10,279,-0.012783369980752,-0.006391684990376,0.000000000000000,-8.825161933898925,0.766156256198883,-8.561796188354492,28.38
10,280,-0.011718087829649,-0.005326403304935,0.000000000000000,-8.868258476257324,0.804464042186737,-8.566584587097167,28.39
10,281,-0.011718087829649,-0.005326403304935,0.000000000000000,-8.868258476257324,0.804464042186737,-8.566584587097167,28.39
10,282,-0.010652806609869,-0.004261123016477,0.001065280754119,-8.853893280029296,0.818829476833344,-8.604892730712890,28.42
10,283,-0.007456964813173,-0.006391684990376,-0.001065280754119,-8.758123397827148,0.799675583839417,-8.595314979553222,28.41
10,284,-0.010652806609869,-0.004261123016477,0.000000000000000,-8.820373535156250,0.766156256198883,-8.595314979553222,28.38
10,285,-0.008522246032953,-0.006391684990376,0.000000000000000,-8.820373535156250,0.766156256198883,-8.542641639709472,28.39
10,286,-0.010652806609869,-0.006391684990376,0.000000000000000,-8.810796737670898,0.756579279899597,-8.571372985839843,28.40
10,287,-0.008522246032953,-0.005326403304935,0.000000000000000,-8.820373535156250,0.766156256198883,-8.638411521911621,28.39
10,288,-0.008522246032953,-0.005326403304935,0.000000000000000,-8.820373535156250,0.766156256198883,-8.638411521911621,28.39
10,289,-0.008522246032953,-0.006391684990376,0.000000000000000,-8.839528083801269,0.747002303600311,-8.619257926940917,28.39
10,290,-0.010652806609869,-0.004261123016477,0.000000000000000,-8.782065391540527,0.804464042186737,-8.552218437194824,28.40
10,291,-0.008522246032953,-0.004261123016477,0.001065280754119,-8.829950332641601,0.751790821552277,-8.614469528198242,28.38
10,292,-0.009587527252734,-0.004261123016477,0.000000000000000,-8.791643142700195,0.766156256198883,-8.633623123168945,28.39
10,293,-0.010652806609869,-0.006391684990376,0.001065280754119,-8.815585136413574,0.770944714546204,-8.633623123168945,28.40
10,294,-0.007456964813173,-0.007456964813173,-0.001065280754119,-8.815585136413574,0.723059952259064,-8.557006835937500,28.39
10,295,-0.011718087829649,-0.005326403304935,0.000000000000000,-8.844316482543945,0.761367738246918,-8.595314979553222,28.39
10,296,-0.011718087829649,-0.005326403304935,0.000000000000000,-8.844316482543945,0.761367738246918,-8.595314979553222,28.39
10,297,-0.010652806609869,-0.006391684990376,-0.001065280754119,-8.801219940185546,0.814041018486023,-8.590526580810546,28.39
10,298,-0.008522246032953,-0.005326403304935,0.002130561508238,-8.791643142700195,0.761367738246918,-8.523488044738769,28.37
10,299,-0.010652806609869,-0.006391684990376,0.001065280754119,-8.782065391540527,0.732636928558350,-8.619257926940917,28.41
10,300,-0.009587527252734,-0.005326403304935,0.000000000000000,-8.815585136413574,0.785310149192810,-8.580949783325195,28.40
10,301,-0.009587527252734,-0.005326403304935,0.000000000000000,-8.782065391540527,0.790098607540131,-8.633623123168945,28.40
10,302,-0.008522246032953,-0.006391684990376,0.002130561508238,-8.868258476257324,0.790098607540131,-8.657565116882324,28.38
10,303,-0.011718087829649,-0.005326403304935,0.000000000000000,-8.758123397827148,0.804464042186737,-8.600103378295898,28.38
10,304,-0.011718087829649,-0.005326403304935,0.000000000000000,-8.758123397827148,0.804464042186737,-8.600103378295898,28.38
10,305,-0.010652806609869,-0.007456964813173,0.001065280754119,-8.801219940185546,0.756579279899597,-8.590526580810546,28.38
10,306,-0.009587527252734,-0.004261123016477,0.000000000000000,-8.815585136413574,0.742213845252991,-8.557006835937500,28.40
10,307,-0.007456964813173,-0.007456964813173,0.001065280754119,-8.767700195312500,0.761367738246918,-8.609681129455566,28.40
10,308,-0.012783369980752,-0.004261123016477,0.000000000000000,-8.815585136413574,0.770944714546204,-8.580949783325195,28.38
10,309,-0.007456964813173,-0.006391684990376,0.000000000000000,-8.844316482543945,0.727848410606384,-8.590526580810546,28.37
10,310,-0.009587527252734,-0.004261123016477,0.001065280754119,-8.829950332641601,0.770944714546204,-8.480391502380371,28.40
10,311,-0.008522246032953,-0.005326403304935,0.001065280754119,-8.791643142700195,0.751790821552277,-8.600103378295898,28.41
10,312,-0.008522246032953,-0.005326403304935,0.001065280754119,-8.791643142700195,0.751790821552277,-8.600103378295898,28.41
10,313,-0.008522246032953,-0.005326403304935,0.002130561508238,-8.825161933898925,0.833194911479950,-8.585738182067871,28.41
10,314,-0.009587527252734,-0.006391684990376,0.001065280754119,-8.806008338928222,0.713482975959778,-8.557006835937500,28.40
10,315,-0.011718087829649,-0.006391684990376,0.000000000000000,-8.829950332641601,0.785310149192810,-8.600103378295898,28.38
10,316,-0.009587527252734,-0.006391684990376,0.000000000000000,-8.810796737670898,0.770944714546204,-8.590526580810546,28.40
10,317,-0.011718087829649,-0.006391684990376,0.001065280754119,-8.834739685058593,0.775733172893524,-8.557006835937500,28.40
10,318,-0.009587527252734,-0.005326403304935,0.000000000000000,-8.777276992797851,0.770944714546204,-8.619257926940917,28.38
10,319,-0.009587527252734,-0.005326403304935,0.000000000000000,-8.777276992797851,0.770944714546204,-8.619257926940917,28.38
10,320,-0.009587527252734,-0.005326403304935,-0.001065280754119,-8.820373535156250,0.761367738246918,-8.571372985839843,28.40
10,321,-0.013848649337888,-0.005326403304935,0.001065280754119,-8.829950332641601,0.766156256198883,-8.604892730712890,28.40
10,322,-0.008522246032953,-0.007456964813173,0.000000000000000,-8.806008338928222,0.775733172893524,-8.652776718139648,28.40
10,323,-0.011718087829649,-0.005326403304935,0.001065280754119,-8.791643142700195,0.799675583839417,-8.633623123168945,28.40
10,324,-0.008522246032953,-0.005326403304935,0.000000000000000,-8.815585136413574,0.747002303600311,-8.628834724426269,28.40
10,325,-0.010652806609869,-0.006391684990376,0.000000000000000,-8.786853790283203,0.770944714546204,-8.576161384582519,28.41
10,326,-0.009587527252734,-0.005326403304935,0.000000000000000,-8.844316482543945,0.718271493911743,-8.576161384582519,28.41
10,327,-0.009587527252734,-0.005326403304935,0.000000000000000,-8.844316482543945,0.718271493911743,-8.576161384582519,28.41
10,328,-0.009587527252734,-0.004261123016477,0.001065280754119,-8.815585136413574,0.761367738246918,-8.671930313110351,28.40
10,329,-0.010652806609869,-0.005326403304935,0.000000000000000,-8.853893280029296,0.780521690845490,-8.600103378295898,28.42
10,330,-0.009587527252734,-0.006391684990376,0.000000000000000,-8.849104881286621,0.780521690845490,-8.628834724426269,28.40
10,331,-0.010652806609869,-0.005326403304935,0.001065280754119,-8.825161933898925,0.766156256198883,-8.609681129455566,28.42
10,332,-0.010652806609869,-0.006391684990376,0.001065280754119,-8.791643142700195,0.766156256198883,-8.557006835937500,28.41
10,333,-0.008522246032953,-0.005326403304935,0.000000000000000,-8.801219940185546,0.766156256198883,-8.619257926940917,28.41
10,334,-0.010652806609869,-0.006391684990376,0.002130561508238,-8.849104881286621,0.770944714546204,-8.619257926940917,28.40
10,335,-0.010652806609869,-0.006391684990376,0.002130561508238,-8.849104881286621,0.770944714546204,-8.619257926940917,28.40
10,336,-0.012783369980752,-0.005326403304935,0.001065280754119,-8.801219940185546,0.770944714546204,-8.561796188354492,28.39
10,337,-0.008522246032953,-0.006391684990376,0.001065280754119,-8.815585136413574,0.770944714546204,-8.595314979553222,28.40
10,338,-0.009587527252734,-0.006391684990376,0.001065280754119,-8.791643142700195,0.833194911479950,-8.547430038452148,28.40
10,339,-0.009587527252734,-0.005326403304935,0.001065280754119,-8.806008338928222,0.732636928558350,-8.667141914367675,28.39
10,340,-0.010652806609869,-0.005326403304935,0.001065280754119,-8.815585136413574,0.785310149192810,-8.571372985839843,28.41
10,341,-0.009587527252734,-0.005326403304935,-0.001065280754119,-8.858681678771972,0.703906059265137,-8.576161384582519,28.38
10,342,-0.010652806609869,-0.005326403304935,-0.002130561508238,-8.772488594055175,0.756579279899597,-8.585738182067871,28.40
10,343,-0.010652806609869,-0.005326403304935,-0.002130561508238,-8.772488594055175,0.756579279899597,-8.585738182067871,28.40
10,344,-0.011718087829649,-0.005326403304935,0.001065280754119,-8.796431541442871,0.742213845252991,-8.676718711853027,28.40
10,345,-0.009587527252734,-0.006391684990376,0.001065280754119,-8.834739685058593,0.756579279899597,-8.571372985839843,28.40
10,346,-0.010652806609869,-0.005326403304935,0.001065280754119,-8.820373535156250,0.756579279899597,-8.600103378295898,28.40
10,347,-0.012783369980752,-0.005326403304935,0.000000000000000,-8.786853790283203,0.751790821552277,-8.561796188354492,28.41
10,348,-0.008522246032953,-0.007456964813173,0.000000000000000,-8.829950332641601,0.751790821552277,-8.686296463012695,28.40
10,349,-0.013848649337888,-0.004261123016477,0.002130561508238,-8.806008338928222,0.775733172893524,-8.585738182067871,28.39
10,350,-0.013848649337888,-0.004261123016477,0.002130561508238,-8.806008338928222,0.775733172893524,-8.585738182067871,28.39
10,351,-0.011718087829649,-0.006391684990376,0.000000000000000,-8.782065391540527,0.814041018486023,-8.619257926940917,28.41
10,352,-0.008522246032953,-0.006391684990376,0.000000000000000,-8.820373535156250,0.775733172893524,-8.619257926940917,28.38
10,353,-0.009587527252734,-0.006391684990376,0.000000000000000,-8.786853790283203,0.761367738246918,-8.643199920654296,28.40
10,354,-0.008522246032953,-0.007456964813173,0.000000000000000,-8.844316482543945,0.751790821552277,-8.633623123168945,28.40
10,355,-0.010652806609869,-0.004261123016477,0.000000000000000,-8.767700195312500,0.770944714546204,-8.633623123168945,28.41
10,356,-0.010652806609869,-0.005326403304935,0.001065280754119,-8.849104881286621,0.761367738246918,-8.576161384582519,28.38
10,357,-0.010652806609869,-0.006391684990376,0.000000000000000,-8.834739685058593,0.747002303600311,-8.566584587097167,28.41
10,358,-0.010652806609869,-0.006391684990376,0.000000000000000,-8.834739685058593,0.747002303600311,-8.566584587097167,28.41
10,359,-0.010652806609869,-0.005326403304935,0.001065280754119,-8.815585136413574,0.799675583839417,-8.633623123168945,28.40
10,360,-0.011718087829649,-0.005326403304935,0.000000000000000,-8.767700195312500,0.766156256198883,-8.657565116882324,28.40
10,361,-0.007456964813173,-0.007456964813173,0.000000000000000,-8.829950332641601,0.766156256198883,-8.657565116882324,28.40
10,362,-0.011718087829649,-0.005326403304935,0.001065280754119,-8.796431541442871,0.790098607540131,-8.619257926940917,28.40
10,363,-0.007456964813173,-0.006391684990376,0.000000000000000,-8.806008338928222,0.790098607540131,-8.600103378295898,28.42
10,364,-0.011718087829649,-0.005326403304935,0.000000000000000,-8.834739685058593,0.766156256198883,-8.595314979553222,28.39
10,365,-0.008522246032953,-0.006391684990376,0.001065280754119,-8.829950332641601,0.761367738246918,-8.580949783325195,28.40
10,366,-0.008522246032953,-0.006391684990376,0.001065280754119,-8.829950332641601,0.761367738246918,-8.580949783325195,28.40
10,367,-0.009587527252734,-0.005326403304935,-0.001065280754119,-8.825161933898925,0.766156256198883,-8.571372985839843,28.40
10,368,-0.009587527252734,-0.005326403304935,0.000000000000000,-8.791643142700195,0.751790821552277,-8.561796188354492,28.40
10,369,-0.010652806609869,-0.005326403304935,0.002130561508238,-8.829950332641601,0.766156256198883,-8.643199920654296,28.40
10,370,-0.008522246032953,-0.006391684990376,0.000000000000000,-8.791643142700195,0.751790821552277,-8.566584587097167,28.42
10,371,-0.011718087829649,-0.005326403304935,0.000000000000000,-8.839528083801269,0.780521690845490,-8.557006835937500,28.41
10,372,-0.010652806609869,-0.005326403304935,0.000000000000000,-8.825161933898925,0.761367738246918,-8.585738182067871,28.41
10,373,-0.010652806609869,-0.006391684990376,0.000000000000000,-8.853893280029296,0.761367738246918,-8.662353515625000,28.41
10,374,-0.010652806609869,-0.006391684990376,0.000000000000000,-8.853893280029296,0.761367738246918,-8.662353515625000,28.41
10,375,-0.010652806609869,-0.005326403304935,0.001065280754119,-8.839528083801269,0.747002303600311,-8.647988319396972,28.41
10,376,-0.007456964813173,-0.006391684990376,0.001065280754119,-8.810796737670898,0.751790821552277,-8.542641639709472,28.42
10,377,-0.011718087829649,-0.004261123016477,0.000000000000000,-8.820373535156250,0.818829476833344,-8.446871757507324,28.41
10,378,-0.007456964813173,-0.005326403304935,0.001065280754119,-8.796431541442871,0.723059952259064,-8.571372985839843,28.41
10,379,-0.010652806609869,-0.005326403304935,0.000000000000000,-8.810796737670898,0.780521690845490,-8.662353515625000,28.41
10,380,-0.010652806609869,-0.005326403304935,0.001065280754119,-8.820373535156250,0.751790821552277,-8.580949783325195,28.42
10,381,-0.010652806609869,-0.005326403304935,0.001065280754119,-8.820373535156250,0.751790821552277,-8.580949783325195,28.42
10,382,-0.011718087829649,-0.005326403304935,0.001065280754119,-8.839528083801269,0.756579279899597,-8.557006835937500,28.39
10,383,-0.009587527252734,-0.006391684990376,0.000000000000000,-8.762911796569824,0.766156256198883,-8.557006835937500,28.40
10,384,-0.009587527252734,-0.006391684990376,0.001065280754119,-8.791643142700195,0.766156256198883,-8.590526580810546,28.42
10,385,-0.010652806609869,-0.004261123016477,0.000000000000000,-8.772488594055175,0.775733172893524,-8.604892730712890,28.40
10,386,-0.010652806609869,-0.005326403304935,0.001065280754119,-8.839528083801269,0.780521690845490,-8.590526580810546,28.42
10,387,-0.008522246032953,-0.005326403304935,0.000000000000000,-8.810796737670898,0.751790821552277,-8.614469528198242,28.41
10,388,-0.011718087829649,-0.005326403304935,0.001065280754119,-8.782065391540527,0.785310149192810,-8.638411521911621,28.41
10,389,-0.011718087829649,-0.005326403304935,0.001065280754119,-8.782065391540527,0.785310149192810,-8.638411521911621,28.41
10,390,-0.011718087829649,-0.006391684990376,0.001065280754119,-8.844316482543945,0.770944714546204,-8.600103378295898,28.42
10,391,-0.008522246032953,-0.006391684990376,0.000000000000000,-8.810796737670898,0.751790821552277,-8.580949783325195,28.40
10,392,-0.010652806609869,-0.004261123016477,0.000000000000000,-8.806008338928222,0.780521690845490,-8.528276443481445,28.41
10,393,-0.009587527252734,-0.006391684990376,0.001065280754119,-8.825161933898925,0.751790821552277,-8.647988319396972,28.43
10,394,-0.010652806609869,-0.006391684990376,0.000000000000000,-8.810796737670898,0.790098607540131,-8.590526580810546,28.41
10,395,-0.009587527252734,-0.005326403304935,0.000000000000000,-8.829950332641601,0.780521690845490,-8.561796188354492,28.40
10,396,-0.009587527252734,-0.005326403304935,0.001065280754119,-8.782065391540527,0.761367738246918,-8.561796188354492,28.40
10,397,-0.009587527252734,-0.005326403304935,0.001065280754119,-8.782065391540527,0.761367738246918,-8.561796188354492,28.40
10,398,-0.010652806609869,-0.004261123016477,0.001065280754119,-8.825161933898925,0.756579279899597,-8.590526580810546,28.42
10,399,-0.010652806609869,-0.005326403304935,0.001065280754119,-8.791643142700195,0.766156256198883,-8.628834724426269,28.40
10,400,-0.009587527252734,-0.005326403304935,0.001065280754119,-8.825161933898925,0.747002303600311,-8.628834724426269,28.40
10,401,-0.011718087829649,-0.005326403304935,0.001065280754119,-8.786853790283203,0.766156256198883,-8.590526580810546,28.39
10,402,-0.008522246032953,-0.006391684990376,0.000000000000000,-8.791643142700195,0.756579279899597,-8.580949783325195,28.40
10,403,-0.013848649337888,-0.005326403304935,0.001065280754119,-8.782065391540527,0.780521690845490,-8.571372985839843,28.40
10,404,-0.007456964813173,-0.006391684990376,0.001065280754119,-8.834739685058593,0.747002303600311,-8.561796188354492,28.41
10,405,-0.007456964813173,-0.006391684990376,0.001065280754119,-8.834739685058593,0.747002303600311,-8.561796188354492,28.41
10,406,-0.009587527252734,-0.006391684990376,0.000000000000000,-8.815585136413574,0.780521690845490,-8.590526580810546,28.43
10,407,-0.009587527252734,-0.004261123016477,0.001065280754119,-8.825161933898925,0.747002303600311,-8.580949783325195,28.42
10,408,-0.011718087829649,-0.006391684990376,0.000000000000000,-8.796431541442871,0.775733172893524,-8.590526580810546,28.41
10,409,-0.010652806609869,-0.004261123016477,0.000000000000000,-8.791643142700195,0.775733172893524,-8.667141914367675,28.41
10,410,-0.011718087829649,-0.006391684990376,0.001065280754119,-8.829950332641601,0.756579279899597,-8.643199920654296,28.40
10,411,-0.010652806609869,-0.005326403304935,-0.001065280754119,-8.801219940185546,0.790098607540131,-8.600103378295898,28.43
10,412,-0.010652806609869,-0.005326403304935,-0.001065280754119,-8.801219940185546,0.790098607540131,-8.600103378295898,28.43
10,413,-0.008522246032953,-0.006391684990376,0.001065280754119,-8.820373535156250,0.761367738246918,-8.595314979553222,28.43
10,414,-0.011718087829649,-0.005326403304935,0.001065280754119,-8.791643142700195,0.761367738246918,-8.566584587097167,28.41
10,415,-0.007456964813173,-0.006391684990376,0.000000000000000,-8.820373535156250,0.780521690845490,-8.600103378295898,28.40
10,416,-0.011718087829649,-0.004261123016477,0.002130561508238,-8.791643142700195,0.775733172893524,-8.614469528198242,28.42
10,417,-0.007456964813173,-0.006391684990376,0.000000000000000,-8.791643142700195,0.770944714546204,-8.628834724426269,28.41
10,418,-0.011718087829649,-0.004261123016477,0.001065280754119,-8.829950332641601,0.742213845252991,-8.628834724426269,28.43
10,419,-0.008522246032953,-0.005326403304935,0.001065280754119,-8.820373535156250,0.751790821552277,-8.624046325683593,28.43
10,420,-0.008522246032953,-0.005326403304935,0.001065280754119,-8.820373535156250,0.751790821552277,-8.624046325683593,28.43
10,421,-0.010652806609869,-0.006391684990376,0.000000000000000,-8.825161933898925,0.794887065887451,-8.600103378295898,28.42
10,422,-0.008522246032953,-0.005326403304935,0.001065280754119,-8.834739685058593,0.785310149192810,-8.542641639709472,28.40
10,423,-0.011718087829649,-0.005326403304935,0.000000000000000,-8.815585136413574,0.785310149192810,-8.523488044738769,28.42
10,424,-0.008522246032953,-0.007456964813173,0.000000000000000,-8.815585136413574,0.756579279899597,-8.576161384582519,28.40
10,425,-0.010652806609869,-0.005326403304935,0.001065280754119,-8.810796737670898,0.756579279899597,-8.552218437194824,28.40
10,426,-0.009587527252734,-0.005326403304935,0.000000000000000,-8.820373535156250,0.823617935180664,-8.595314979553222,28.43
10,427,-0.010652806609869,-0.005326403304935,0.001065280754119,-8.782065391540527,0.751790821552277,-8.533064842224121,28.41
10,428,-0.010652806609869,-0.005326403304935,0.001065280754119,-8.782065391540527,0.751790821552277,-8.533064842224121,28.41
10,429,-0.012783369980752,-0.004261123016477,0.001065280754119,-8.806008338928222,0.770944714546204,-8.676718711853027,28.41
10,430,-0.007456964813173,-0.006391684990376,0.000000000000000,-8.796431541442871,0.775733172893524,-8.585738182067871,28.42
10,431,-0.011718087829649,-0.004261123016477,0.000000000000000,-8.834739685058593,0.775733172893524,-8.576161384582519,28.42
10,432,-0.009587527252734,-0.006391684990376,0.000000000000000,-8.849104881286621,0.766156256198883,-8.523488044738769,28.41
10,433,-0.009587527252734,-0.006391684990376,0.001065280754119,-8.810796737670898,0.761367738246918,-8.576161384582519,28.41
10,434,-0.011718087829649,-0.005326403304935,0.000000000000000,-8.791643142700195,0.814041018486023,-8.619257926940917,28.41
10,435,-0.007456964813173,-0.005326403304935,0.000000000000000,-8.796431541442871,0.737425386905670,-8.628834724426269,28.40
10,436,-0.007456964813173,-0.005326403304935,0.000000000000000,-8.796431541442871,0.737425386905670,-8.628834724426269,28.40
10,437,-0.008522246032953,-0.006391684990376,0.000000000000000,-8.791643142700195,0.780521690845490,-8.614469528198242,28.41
10,438,-0.010652806609869,-0.005326403304935,0.002130561508238,-8.820373535156250,0.766156256198883,-8.576161384582519,28.41
10,439,-0.008522246032953,-0.005326403304935,0.000000000000000,-8.820373535156250,0.761367738246918,-8.614469528198242,28.43
10,440,-0.010652806609869,-0.006391684990376,0.001065280754119,-8.782065391540527,0.751790821552277,-8.571372985839843,28.40
10,441,-0.008522246032953,-0.006391684990376,0.001065280754119,-8.806008338928222,0.775733172893524,-8.566584587097167,28.42
10,442,-0.010652806609869,-0.005326403304935,0.002130561508238,-8.849104881286621,0.747002303600311,-8.633623123168945,28.42
10,443,-0.010652806609869,-0.005326403304935,0.002130561508238,-8.849104881286621,0.747002303600311,-8.633623123168945,28.42
10,444,-0.011718087829649,-0.005326403304935,0.001065280754119,-8.820373535156250,0.809252500534058,-8.580949783325195,28.41
10,445,-0.008522246032953,-0.005326403304935,0.001065280754119,-8.786853790283203,0.742213845252991,-8.542641639709472,28.42
10,446,-0.009587527252734,-0.005326403304935,0.000000000000000,-8.829950332641601,0.766156256198883,-8.628834724426269,28.40
10,447,-0.010652806609869,-0.006391684990376,0.000000000000000,-8.791643142700195,0.766156256198883,-8.547430038452148,28.43
10,448,-0.007456964813173,-0.006391684990376,-0.001065280754119,-8.801219940185546,0.751790821552277,-8.561796188354492,28.41
10,449,-0.010652806609869,-0.005326403304935,0.000000000000000,-8.815585136413574,0.766156256198883,-8.609681129455566,28.40
10,450,-0.008522246032953,-0.005326403304935,0.001065280754119,-8.815585136413574,0.761367738246918,-8.595314979553222,28.42
10,451,-0.008522246032953,-0.005326403304935,0.001065280754119,-8.815585136413574,0.761367738246918,-8.595314979553222,28.42
10,452,-0.010652806609869,-0.005326403304935,0.001065280754119,-8.782065391540527,0.775733172893524,-8.566584587097167,28.41
10,453,-0.010652806609869,-0.006391684990376,0.001065280754119,-8.810796737670898,0.790098607540131,-8.595314979553222,28.41
10,454,-0.009587527252734,-0.006391684990376,0.000000000000000,-8.796431541442871,0.785310149192810,-8.657565116882324,28.42
10,455,-0.009587527252734,-0.006391684990376,0.001065280754119,-8.863470077514648,0.799675583839417,-8.647988319396972,28.43
10,456,-0.007456964813173,-0.006391684990376,0.000000000000000,-8.801219940185546,0.775733172893524,-8.566584587097167,28.41
10,457,-0.012783369980752,-0.005326403304935,0.000000000000000,-8.820373535156250,0.766156256198883,-8.580949783325195,28.42
10,458,-0.008522246032953,-0.007456964813173,0.001065280754119,-8.810796737670898,0.751790821552277,-8.633623123168945,28.42
10,459,-0.008522246032953,-0.007456964813173,0.001065280754119,-8.810796737670898,0.751790821552277,-8.633623123168945,28.42
10,460,-0.010652806609869,-0.005326403304935,0.000000000000000,-8.801219940185546,0.761367738246918,-8.604892730712890,28.42
10,461,-0.009587527252734,-0.005326403304935,0.000000000000000,-8.849104881286621,0.756579279899597,-8.614469528198242,28.40
10,462,-0.010652806609869,-0.005326403304935,0.001065280754119,-8.825161933898925,0.818829476833344,-8.566584587097167,28.43
10,463,-0.009587527252734,-0.005326403304935,0.000000000000000,-8.839528083801269,0.775733172893524,-8.590526580810546,28.42
10,464,-0.011718087829649,-0.004261123016477,0.001065280754119,-8.834739685058593,0.732636928558350,-8.633623123168945,28.41
10,465,-0.010652806609869,-0.006391684990376,0.000000000000000,-8.815585136413574,0.766156256198883,-8.557006835937500,28.40
10,466,-0.009587527252734,-0.005326403304935,-0.001065280754119,-8.801219940185546,0.761367738246918,-8.585738182067871,28.40
10,467,-0.009587527252734,-0.005326403304935,-0.001065280754119,-8.801219940185546,0.761367738246918,-8.585738182067871,28.40
10,468,-0.010652806609869,-0.006391684990376,0.000000000000000,-8.782065391540527,0.747002303600311,-8.600103378295898,28.41
10,469,-0.007456964813173,-0.005326403304935,0.000000000000000,-8.815585136413574,0.766156256198883,-8.600103378295898,28.43
10,470,-0.011718087829649,-0.005326403304935,0.001065280754119,-8.806008338928222,0.780521690845490,-8.590526580810546,28.43
10,471,-0.007456964813173,-0.007456964813173,0.000000000000000,-8.810796737670898,0.737425386905670,-8.604892730712890,28.42
10,472,-0.011718087829649,-0.004261123016477,0.001065280754119,-8.863470077514648,0.751790821552277,-8.633623123168945,28.42
10,473,-0.007456964813173,-0.006391684990376,0.000000000000000,-8.786853790283203,0.761367738246918,-8.561796188354492,28.43
10,474,-0.007456964813173,-0.006391684990376,0.000000000000000,-8.786853790283203,0.761367738246918,-8.561796188354492,28.43
10,475,-0.010652806609869,-0.006391684990376,0.001065280754119,-8.791643142700195,0.790098607540131,-8.580949783325195,28.42
10,476,-0.009587527252734,-0.006391684990376,0.001065280754119,-8.834739685058593,0.785310149192810,-8.619257926940917,28.43
10,477,-0.011718087829649,-0.005326403304935,0.000000000000000,-8.810796737670898,0.756579279899597,-8.576161384582519,28.42
10,478,-0.008522246032953,-0.006391684990376,0.000000000000000,-8.825161933898925,0.747002303600311,-8.571372985839843,28.42
10,479,-0.009587527252734,-0.004261123016477,0.001065280754119,-8.839528083801269,0.742213845252991,-8.633623123168945,28.39
10,480,-0.008522246032953,-0.005326403304935,0.000000000000000,-8.786853790283203,0.766156256198883,-8.624046325683593,28.43
10,481,-0.010652806609869,-0.005326403304935,0.001065280754119,-8.820373535156250,0.780521690845490,-8.619257926940917,28.42
10,482,-0.010652806609869,-0.005326403304935,0.001065280754119,-8.820373535156250,0.780521690845490,-8.619257926940917,28.42
10,483,-0.012783369980752,-0.005326403304935,0.000000000000000,-8.806008338928222,0.780521690845490,-8.657565116882324,28.42
10,484,-0.006391684990376,-0.007456964813173,0.000000000000000,-8.777276992797851,0.775733172893524,-8.590526580810546,28.41
10,485,-0.011718087829649,-0.004261123016477,0.000000000000000,-8.791643142700195,0.756579279899597,-8.600103378295898,28.42
10,486,-0.008522246032953,-0.006391684990376,0.001065280754119,-8.810796737670898,0.766156256198883,-8.633623123168945,28.42
10,487,-0.009587527252734,-0.005326403304935,0.001065280754119,-8.810796737670898,0.775733172893524,-8.624046325683593,28.43
10,488,-0.009587527252734,-0.005326403304935,0.000000000000000,-8.810796737670898,0.770944714546204,-8.557006835937500,28.43
10,489,-0.007456964813173,-0.005326403304935,0.001065280754119,-8.772488594055175,0.770944714546204,-8.614469528198242,28.41
10,490,-0.007456964813173,-0.005326403304935,0.001065280754119,-8.772488594055175,0.770944714546204,-8.614469528198242,28.41
10,491,-0.007456964813173,-0.006391684990376,0.001065280754119,-8.834739685058593,0.742213845252991,-8.566584587097167,28.43
10,492,-0.010652806609869,-0.005326403304935,0.001065280754119,-8.844316482543945,0.780521690845490,-8.604892730712890,28.42
10,493,-0.009587527252734,-0.007456964813173,0.000000000000000,-8.834739685058593,0.780521690845490,-8.590526580810546,28.39
10,494,-0.011718087829649,-0.005326403304935,0.001065280754119,-8.863470077514648,0.790098607540131,-8.552218437194824,28.42
10,495,-0.007456964813173,-0.007456964813173,0.000000000000000,-8.806008338928222,0.718271493911743,-8.547430038452148,28.42
10,496,-0.011718087829649,-0.005326403304935,0.000000000000000,-8.796431541442871,0.756579279899597,-8.600103378295898,28.44
10,497,-0.008522246032953,-0.007456964813173,0.000000000000000,-8.825161933898925,0.766156256198883,-8.542641639709472,28.43
10,498,-0.008522246032953,-0.007456964813173,0.000000000000000,-8.825161933898925,0.766156256198883,-8.542641639709472,28.43
10,499,-0.008522246032953,-0.007456964813173,0.000000000000000,-8.810796737670898,0.742213845252991,-8.571372985839843,28.42
10,500,-0.010652806609869,-0.005326403304935,0.001065280754119,-8.829950332641601,0.761367738246918,-8.600103378295898,28.43
10,501,-0.009587527252734,-0.005326403304935,0.000000000000000,-8.825161933898925,0.790098607540131,-8.533064842224121,28.41
10,502,-0.010652806609869,-0.006391684990376,0.000000000000000,-8.801219940185546,0.775733172893524,-8.633623123168945,28.45
10,503,-0.010652806609869,-0.004261123016477,0.001065280754119,-8.839528083801269,0.770944714546204,-8.643199920654296,28.42
10,504,-0.007456964813173,-0.006391684990376,0.000000000000000,-8.777276992797851,0.770944714546204,-8.624046325683593,28.41
10,505,-0.007456964813173,-0.006391684990376,0.000000000000000,-8.777276992797851,0.770944714546204,-8.624046325683593,28.41
10,506,-0.007456964813173,-0.006391684990376,0.000000000000000,-8.829950332641601,0.775733172893524,-8.628834724426269,28.41
10,507,-0.010652806609869,-0.005326403304935,0.001065280754119,-8.839528083801269,0.732636928558350,-8.585738182067871,28.42
10,508,-0.009587527252734,-0.006391684990376,-0.001065280754119,-8.810796737670898,0.751790821552277,-8.595314979553222,28.43
10,509,-0.011718087829649,-0.004261123016477,0.000000000000000,-8.844316482543945,0.785310149192810,-8.638411521911621,28.43
10,510,-0.008522246032953,-0.006391684990376,0.001065280754119,-8.810796737670898,0.747002303600311,-8.580949783325195,28.43
10,511,-0.012783369980752,-0.005326403304935,0.002130561508238,-8.791643142700195,0.775733172893524,-8.614469528198242,28.41
10,512,-0.008522246032953,-0.006391684990376,0.000000000000000,-8.782065391540527,0.775733172893524,-8.571372985839843,28.43
10,513,-0.008522246032953,-0.006391684990376,0.000000000000000,-8.782065391540527,0.775733172893524,-8.571372985839843,28.43
10,514,-0.009587527252734,-0.006391684990376,0.001065280754119,-8.796431541442871,0.794887065887451,-8.600103378295898,28.41
10,515,-0.008522246032953,-0.005326403304935,0.000000000000000,-8.844316482543945,0.756579279899597,-8.590526580810546,28.43
10,516,-0.011718087829649,-0.005326403304935,0.001065280754119,-8.820373535156250,0.780521690845490,-8.561796188354492,28.42
10,517,-0.008522246032953,-0.005326403304935,0.000000000000000,-8.834739685058593,0.718271493911743,-8.585738182067871,28.43
10,518,-0.010652806609869,-0.005326403304935,-0.001065280754119,-8.777276992797851,0.756579279899597,-8.542641639709472,28.40
10,519,-0.009587527252734,-0.006391684990376,0.000000000000000,-8.815585136413574,0.790098607540131,-8.533064842224121,28.40
10,520,-0.009587527252734,-0.006391684990376,0.000000000000000,-8.825161933898925,0.770944714546204,-8.571372985839843,28.41
10,521,-0.009587527252734,-0.006391684990376,0.000000000000000,-8.825161933898925,0.770944714546204,-8.571372985839843,28.41
10,522,-0.010652806609869,-0.005326403304935,0.001065280754119,-8.801219940185546,0.766156256198883,-8.600103378295898,28.42
10,523,-0.008522246032953,-0.006391684990376,0.001065280754119,-8.796431541442871,0.732636928558350,-8.571372985839843,28.43
10,524,-0.011718087829649,-0.006391684990376,0.001065280754119,-8.829950332641601,0.799675583839417,-8.609681129455566,28.41
10,525,-0.008522246032953,-0.007456964813173,-0.002130561508238,-8.806008338928222,0.770944714546204,-8.580949783325195,28.45
10,526,-0.010652806609869,-0.005326403304935,0.001065280754119,-8.810796737670898,0.751790821552277,-8.561796188354492,28.43
10,527,-0.008522246032953,-0.006391684990376,0.000000000000000,-8.801219940185546,0.785310149192810,-8.576161384582519,28.44
10,528,-0.008522246032953,-0.005326403304935,0.000000000000000,-8.825161933898925,0.799675583839417,-8.590526580810546,28.42
10,529,-0.008522246032953,-0.005326403304935,0.000000000000000,-8.825161933898925,0.799675583839417,-8.590526580810546,28.42
10,530,-0.008522246032953,-0.005326403304935,-0.001065280754119,-8.815585136413574,0.775733172893524,-8.552218437194824,28.43
10,531,-0.011718087829649,-0.005326403304935,0.000000000000000,-8.796431541442871,0.756579279899597,-8.595314979553222,28.42
10,532,-0.009587527252734,-0.005326403304935,0.000000000000000,-8.815585136413574,0.761367738246918,-8.595314979553222,28.43
10,533,-0.010652806609869,-0.005326403304935,0.000000000000000,-8.825161933898925,0.756579279899597,-8.619257926940917,28.42
10,534,-0.009587527252734,-0.006391684990376,0.001065280754119,-8.782065391540527,0.747002303600311,-8.576161384582519,28.43
10,535,-0.010652806609869,-0.006391684990376,0.000000000000000,-8.806008338928222,0.747002303600311,-8.695873260498046,28.42
10,536,-0.009587527252734,-0.006391684990376,0.000000000000000,-8.820373535156250,0.770944714546204,-8.580949783325195,28.41
10,537,-0.011718087829649,-0.005326403304935,0.001065280754119,-8.791643142700195,0.761367738246918,-8.580949783325195,28.44
10,538,-0.009587527252734,-0.007456964813173,0.000000000000000,-8.777276992797851,0.742213845252991,-8.566584587097167,28.44
10,539,-0.011718087829649,-0.003195842495188,0.001065280754119,-8.829950332641601,0.780521690845490,-8.580949783325195,28.43
10,540,-0.009587527252734,-0.006391684990376,0.000000000000000,-8.810796737670898,0.694329082965851,-8.595314979553222,28.43
10,541,-0.009587527252734,-0.005326403304935,0.001065280754119,-8.834739685058593,0.775733172893524,-8.657565116882324,28.42
10,542,-0.010652806609869,-0.006391684990376,0.001065280754119,-8.786853790283203,0.775733172893524,-8.518699645996093,28.42
10,543,-0.009587527252734,-0.006391684990376,0.001065280754119,-8.834739685058593,0.785310149192810,-8.609681129455566,28.43
10,544,-0.009587527252734,-0.006391684990376,0.001065280754119,-8.834739685058593,0.785310149192810,-8.609681129455566,28.43
10,545,-0.006391684990376,-0.006391684990376,0.000000000000000,-8.796431541442871,0.804464042186737,-8.561796188354492,28.43
10,546,-0.010652806609869,-0.004261123016477,0.001065280754119,-8.810796737670898,0.785310149192810,-8.604892730712890,28.45
10,547,-0.008522246032953,-0.006391684990376,0.001065280754119,-8.825161933898925,0.742213845252991,-8.643199920654296,28.43
10,548,-0.012783369980752,-0.006391684990376,0.000000000000000,-8.806008338928222,0.766156256198883,-8.571372985839843,28.42
10,549,-0.007456964813173,-0.006391684990376,0.001065280754119,-8.853893280029296,0.756579279899597,-8.619257926940917,28.44
10,550,-0.012783369980752,-0.006391684990376,0.000000000000000,-8.796431541442871,0.790098607540131,-8.585738182067871,28.44
10,551,-0.007456964813173,-0.007456964813173,0.001065280754119,-8.839528083801269,0.761367738246918,-8.561796188354492,28.42
10,552,-0.007456964813173,-0.007456964813173,0.001065280754119,-8.839528083801269,0.761367738246918,-8.561796188354492,28.42
10,553,-0.009587527252734,-0.007456964813173,0.001065280754119,-8.801219940185546,0.737425386905670,-8.600103378295898,28.44
10,554,-0.009587527252734,-0.004261123016477,-0.001065280754119,-8.801219940185546,0.785310149192810,-8.614469528198242,28.43
10,555,-0.010652806609869,-0.006391684990376,0.001065280754119,-8.762911796569824,0.718271493911743,-8.561796188354492,28.44
10,556,-0.007456964813173,-0.006391684990376,0.001065280754119,-8.796431541442871,0.747002303600311,-8.604892730712890,28.45
10,557,-0.011718087829649,-0.004261123016477,0.001065280754119,-8.801219940185546,0.833194911479950,-8.667141914367675,28.43
10,558,-0.008522246032953,-0.006391684990376,0.001065280754119,-8.820373535156250,0.751790821552277,-8.624046325683593,28.43
10,559,-0.012783369980752,-0.005326403304935,0.000000000000000,-8.810796737670898,0.785310149192810,-8.619257926940917,28.43
10,560,-0.012783369980752,-0.005326403304935,0.000000000000000,-8.810796737670898,0.785310149192810,-8.619257926940917,28.43
10,561,-0.010652806609869,-0.003195842495188,0.001065280754119,-8.815585136413574,0.780521690845490,-8.643199920654296,28.43
10,562,-0.010652806609869,-0.005326403304935,0.000000000000000,-8.839528083801269,0.761367738246918,-8.580949783325195,28.43
10,563,-0.009587527252734,-0.005326403304935,0.001065280754119,-8.791643142700195,0.751790821552277,-8.619257926940917,28.44
10,564,-0.008522246032953,-0.006391684990376,0.000000000000000,-8.825161933898925,0.790098607540131,-8.643199920654296,28.45
10,565,-0.009587527252734,-0.004261123016477,0.001065280754119,-8.806008338928222,0.790098607540131,-8.542641639709472,28.44
10,566,-0.010652806609869,-0.005326403304935,0.000000000000000,-8.815585136413574,0.775733172893524,-8.590526580810546,28.42
10,567,-0.010652806609869,-0.005326403304935,0.000000000000000,-8.815585136413574,0.775733172893524,-8.590526580810546,28.42
10,568,-0.011718087829649,-0.006391684990376,0.001065280754119,-8.801219940185546,0.794887065887451,-8.614469528198242,28.44
10,569,-0.008522246032953,-0.006391684990376,0.001065280754119,-8.815585136413574,0.756579279899597,-8.657565116882324,28.43
10,570,-0.013848649337888,-0.006391684990376,-0.001065280754119,-8.786853790283203,0.766156256198883,-8.590526580810546,28.43
10,571,-0.007456964813173,-0.006391684990376,0.001065280754119,-8.796431541442871,0.737425386905670,-8.561796188354492,28.42
10,572,-0.011718087829649,-0.005326403304935,0.001065280754119,-8.839528083801269,0.799675583839417,-8.643199920654296,28.43
10,573,-0.010652806609869,-0.007456964813173,0.000000000000000,-8.791643142700195,0.790098607540131,-8.595314979553222,28.44
10,574,-0.009587527252734,-0.005326403304935,0.000000000000000,-8.782065391540527,0.770944714546204,-8.633623123168945,28.45
10,575,-0.009587527252734,-0.005326403304935,0.000000000000000,-8.782065391540527,0.770944714546204,-8.633623123168945,28.45
10,576,-0.011718087829649,-0.006391684990376,0.001065280754119,-8.844316482543945,0.761367738246918,-8.552218437194824,28.44
10,577,-0.010652806609869,-0.006391684990376,0.001065280754119,-8.829950332641601,0.785310149192810,-8.600103378295898,28.42
10,578,-0.010652806609869,-0.005326403304935,0.000000000000000,-8.796431541442871,0.770944714546204,-8.604892730712890,28.43
10,579,-0.009587527252734,-0.005326403304935,0.001065280754119,-8.829950332641601,0.742213845252991,-8.542641639709472,28.45
10,580,-0.009587527252734,-0.005326403304935,0.000000000000000,-8.815585136413574,0.770944714546204,-8.657565116882324,28.41
10,581,-0.009587527252734,-0.006391684990376,0.001065280754119,-8.810796737670898,0.751790821552277,-8.557006835937500,28.44
10,582,-0.009587527252734,-0.005326403304935,0.000000000000000,-8.796431541442871,0.814041018486023,-8.647988319396972,28.44
10,583,-0.009587527252734,-0.005326403304935,0.000000000000000,-8.796431541442871,0.814041018486023,-8.647988319396972,28.44
10,584,-0.007456964813173,-0.006391684990376,-0.001065280754119,-8.806008338928222,0.766156256198883,-8.566584587097167,28.44
10,585,-0.010652806609869,-0.006391684990376,0.000000000000000,-8.834739685058593,0.761367738246918,-8.590526580810546,28.43
10,586,-0.008522246032953,-0.005326403304935,0.002130561508238,-8.806008338928222,0.780521690845490,-8.619257926940917,28.42
10,587,-0.011718087829649,-0.005326403304935,0.001065280754119,-8.834739685058593,0.780521690845490,-8.643199920654296,28.44
10,588,-0.009587527252734,-0.005326403304935,-0.001065280754119,-8.777276992797851,0.756579279899597,-8.580949783325195,28.45
10,589,-0.011718087829649,-0.004261123016477,0.000000000000000,-8.815585136413574,0.785310149192810,-8.571372985839843,28.45
10,590,-0.008522246032953,-0.007456964813173,0.000000000000000,-8.791643142700195,0.799675583839417,-8.561796188354492,28.43
10,591,-0.008522246032953,-0.007456964813173,0.000000000000000,-8.791643142700195,0.799675583839417,-8.561796188354492,28.43
10,592,-0.008522246032953,-0.007456964813173,0.001065280754119,-8.829950332641601,0.770944714546204,-8.585738182067871,28.43
10,593,-0.010652806609869,-0.005326403304935,0.000000000000000,-8.815585136413574,0.770944714546204,-8.652776718139648,28.44
10,594,-0.010652806609869,-0.006391684990376,0.001065280754119,-8.815585136413574,0.751790821552277,-8.595314979553222,28.44
10,595,-0.009587527252734,-0.005326403304935,0.001065280754119,-8.806008338928222,0.780521690845490,-8.647988319396972,28.45
10,596,-0.011718087829649,-0.006391684990376,0.001065280754119,-8.844316482543945,0.804464042186737,-8.604892730712890,28.45
10,597,-0.008522246032953,-0.006391684990376,0.000000000000000,-8.810796737670898,0.751790821552277,-8.604892730712890,28.43
10,598,-0.011718087829649,-0.004261123016477,0.000000000000000,-8.791643142700195,0.727848410606384,-8.604892730712890,28.45
10,599,-0.008522246032953,-0.007456964813173,0.000000000000000,-8.820373535156250,0.794887065887451,-8.619257926940917,28.44
10,600,-0.010652806609869,-0.006391684990376,0.000000000000000,-8.839528083801269,0.751790821552277,-8.662353515625000,28.44
10,601,-0.007456964813173,-0.007456964813173,0.000000000000000,-8.825161933898925,0.751790821552277,-8.552218437194824,28.45
10,602,-0.011718087829649,-0.006391684990376,0.000000000000000,-8.762911796569824,0.756579279899597,-8.561796188354492,28.44
10,603,-0.008522246032953,-0.005326403304935,0.001065280754119,-8.844316482543945,0.756579279899597,-8.561796188354492,28.44
10,604,-0.011718087829649,-0.005326403304935,0.000000000000000,-8.767700195312500,0.751790821552277,-8.576161384582519,28.43
10,605,-0.008522246032953,-0.006391684990376,0.000000000000000,-8.820373535156250,0.761367738246918,-8.652776718139648,28.44
10,606,-0.008522246032953,-0.006391684990376,0.000000000000000,-8.820373535156250,0.761367738246918,-8.652776718139648,28.44
10,607,-0.009587527252734,-0.007456964813173,0.000000000000000,-8.815585136413574,0.761367738246918,-8.638411521911621,28.43
10,608,-0.009587527252734,-0.007456964813173,0.000000000000000,-8.786853790283203,0.756579279899597,-8.600103378295898,28.45
10,609,-0.010652806609869,-0.006391684990376,0.000000000000000,-8.791643142700195,0.780521690845490,-8.576161384582519,28.45
10,610,-0.007456964813173,-0.007456964813173,0.001065280754119,-8.839528083801269,0.756579279899597,-8.595314979553222,28.45
10,611,-0.012783369980752,-0.004261123016477,0.002130561508238,-8.877835273742675,0.790098607540131,-8.595314979553222,28.43
10,612,-0.007456964813173,-0.006391684990376,0.000000000000000,-8.868258476257324,0.775733172893524,-8.595314979553222,28.44
10,613,-0.012783369980752,-0.004261123016477,0.001065280754119,-8.815585136413574,0.751790821552277,-8.566584587097167,28.45
10,614,-0.012783369980752,-0.004261123016477,0.001065280754119,-8.815585136413574,0.751790821552277,-8.566584587097167,28.45
10,615,-0.010652806609869,-0.005326403304935,0.001065280754119,-8.801219940185546,0.785310149192810,-8.614469528198242,28.43
10,616,-0.008522246032953,-0.005326403304935,0.001065280754119,-8.849104881286621,0.775733172893524,-8.590526580810546,28.44
10,617,-0.009587527252734,-0.005326403304935,0.000000000000000,-8.844316482543945,0.780521690845490,-8.590526580810546,28.44
10,618,-0.010652806609869,-0.006391684990376,0.000000000000000,-8.815585136413574,0.766156256198883,-8.547430038452148,28.44
10,619,-0.010652806609869,-0.005326403304935,0.000000000000000,-8.796431541442871,0.751790821552277,-8.595314979553222,28.44
10,620,-0.008522246032953,-0.006391684990376,0.001065280754119,-8.815585136413574,0.751790821552277,-8.557006835937500,28.42
10,621,-0.009587527252734,-0.005326403304935,0.001065280754119,-8.820373535156250,0.713482975959778,-8.643199920654296,28.45
10,622,-0.009587527252734,-0.005326403304935,0.001065280754119,-8.820373535156250,0.713482975959778,-8.643199920654296,28.45
10,623,-0.008522246032953,-0.007456964813173,0.000000000000000,-8.834739685058593,0.751790821552277,-8.624046325683593,28.44
10,624,-0.013848649337888,-0.004261123016477,0.001065280754119,-8.829950332641601,0.766156256198883,-8.638411521911621,28.44
10,625,-0.006391684990376,-0.007456964813173,0.000000000000000,-8.839528083801269,0.766156256198883,-8.557006835937500,28.41
10,626,-0.011718087829649,-0.005326403304935,0.001065280754119,-8.762911796569824,0.790098607540131,-8.609681129455566,28.45
10,627,-0.007456964813173,-0.005326403304935,0.001065280754119,-8.810796737670898,0.751790821552277,-8.576161384582519,28.44
10,628,-0.009587527252734,-0.005326403304935,0.000000000000000,-8.767700195312500,0.785310149192810,-8.557006835937500,28.44
10,629,-0.010652806609869,-0.005326403304935,0.000000000000000,-8.806008338928222,0.742213845252991,-8.595314979553222,28.43
10,630,-0.009587527252734,-0.006391684990376,0.001065280754119,-8.810796737670898,0.761367738246918,-8.566584587097167,28.44
10,631,-0.010652806609869,-0.005326403304935,0.001065280754119,-8.801219940185546,0.761367738246918,-8.552218437194824,28.43
10,632,-0.010652806609869,-0.005326403304935,0.001065280754119,-8.806008338928222,0.770944714546204,-8.619257926940917,28.45
10,633,-0.009587527252734,-0.006391684990376,0.000000000000000,-8.815585136413574,0.775733172893524,-8.533064842224121,28.46
10,634,-0.009587527252734,-0.005326403304935,0.000000000000000,-8.815585136413574,0.766156256198883,-8.542641639709472,28.43
10,635,-0.009587527252734,-0.005326403304935,0.001065280754119,-8.791643142700195,0.775733172893524,-8.590526580810546,28.45
10,636,-0.009587527252734,-0.006391684990376,0.000000000000000,-8.829950332641601,0.751790821552277,-8.518699645996093,28.43
10,637,-0.009587527252734,-0.006391684990376,0.000000000000000,-8.829950332641601,0.751790821552277,-8.518699645996093,28.43
10,638,-0.009587527252734,-0.007456964813173,0.000000000000000,-8.748546600341796,0.737425386905670,-8.585738182067871,28.44
10,639,-0.011718087829649,-0.005326403304935,0.001065280754119,-8.829950332641601,0.794887065887451,-8.628834724426269,28.44
10,640,-0.007456964813173,-0.005326403304935,0.000000000000000,-8.806008338928222,0.756579279899597,-8.590526580810546,28.45
10,641,-0.010652806609869,-0.005326403304935,-0.001065280754119,-8.825161933898925,0.737425386905670,-8.585738182067871,28.44
10,642,-0.009587527252734,-0.005326403304935,0.001065280754119,-8.834739685058593,0.775733172893524,-8.561796188354492,28.45
10,643,-0.010652806609869,-0.007456964813173,0.000000000000000,-8.801219940185546,0.751790821552277,-8.628834724426269,28.45
10,644,-0.009587527252734,-0.006391684990376,0.001065280754119,-8.834739685058593,0.751790821552277,-8.571372985839843,28.43
10,645,-0.009587527252734,-0.006391684990376,0.001065280754119,-8.834739685058593,0.751790821552277,-8.571372985839843,28.43
10,646,-0.007456964813173,-0.006391684990376,0.000000000000000,-8.853893280029296,0.766156256198883,-8.609681129455566,28.44
10,647,-0.012783369980752,-0.004261123016477,0.000000000000000,-8.796431541442871,0.770944714546204,-8.585738182067871,28.44
10,648,-0.009587527252734,-0.006391684990376,0.000000000000000,-8.820373535156250,0.770944714546204,-8.595314979553222,28.45
10,649,-0.008522246032953,-0.005326403304935,-0.001065280754119,-8.825161933898925,0.751790821552277,-8.628834724426269,28.45
10,650,-0.011718087829649,-0.006391684990376,0.000000000000000,-8.801219940185546,0.770944714546204,-8.590526580810546,28.45
10,651,-0.007456964813173,-0.005326403304935,0.000000000000000,-8.829950332641601,0.742213845252991,-8.542641639709472,28.46
10,652,-0.011718087829649,-0.006391684990376,0.001065280754119,-8.801219940185546,0.775733172893524,-8.643199920654296,28.45
10,653,-0.011718087829649,-0.006391684990376,0.001065280754119,-8.801219940185546,0.775733172893524,-8.643199920654296,28.45
10,654,-0.010652806609869,-0.004261123016477,0.000000000000000,-8.810796737670898,0.790098607540131,-8.566584587097167,28.44
10,655,-0.009587527252734,-0.005326403304935,0.002130561508238,-8.858681678771972,0.804464042186737,-8.638411521911621,28.44
10,656,-0.011718087829649,-0.006391684990376,0.000000000000000,-8.767700195312500,0.780521690845490,-8.600103378295898,28.44
10,657,-0.008522246032953,-0.007456964813173,0.001065280754119,-8.796431541442871,0.770944714546204,-8.595314979553222,28.44
10,658,-0.010652806609869,-0.005326403304935,0.000000000000000,-8.810796737670898,0.703906059265137,-8.590526580810546,28.44
10,659,-0.009587527252734,-0.006391684990376,0.001065280754119,-8.849104881286621,0.766156256198883,-8.628834724426269,28.45
10,660,-0.010652806609869,-0.005326403304935,0.001065280754119,-8.782065391540527,0.756579279899597,-8.547430038452148,28.45
10,661,-0.009587527252734,-0.007456964813173,0.002130561508238,-8.820373535156250,0.780521690845490,-8.624046325683593,28.44
10,662,-0.009587527252734,-0.005326403304935,0.000000000000000,-8.796431541442871,0.775733172893524,-8.638411521911621,28.45
10,663,-0.009587527252734,-0.004261123016477,-0.001065280754119,-8.806008338928222,0.742213845252991,-8.595314979553222,28.43
10,664,-0.008522246032953,-0.006391684990376,0.000000000000000,-8.853893280029296,0.770944714546204,-8.614469528198242,28.45
10,665,-0.013848649337888,-0.005326403304935,0.000000000000000,-8.782065391540527,0.747002303600311,-8.566584587097167,28.47
10,666,-0.006391684990376,-0.007456964813173,0.001065280754119,-8.849104881286621,0.732636928558350,-8.595314979553222,28.45
10,667,-0.011718087829649,-0.006391684990376,0.000000000000000,-8.806008338928222,0.775733172893524,-8.600103378295898,28.43
10,668,-0.011718087829649,-0.006391684990376,0.000000000000000,-8.806008338928222,0.775733172893524,-8.600103378295898,28.43
10,669,-0.010652806609869,-0.005326403304935,0.001065280754119,-8.806008338928222,0.751790821552277,-8.657565116882324,28.45
10,670,-0.010652806609869,-0.006391684990376,0.000000000000000,-8.849104881286621,0.770944714546204,-8.566584587097167,28.45
10,671,-0.008522246032953,-0.006391684990376,0.001065280754119,-8.801219940185546,0.770944714546204,-8.576161384582519,28.44
10,672,-0.010652806609869,-0.005326403304935,0.001065280754119,-8.839528083801269,0.747002303600311,-8.614469528198242,28.44
10,673,-0.010652806609869,-0.006391684990376,0.001065280754119,-8.801219940185546,0.770944714546204,-8.571372985839843,28.46
10,674,-0.011718087829649,-0.005326403304935,0.001065280754119,-8.858681678771972,0.761367738246918,-8.624046325683593,28.44
10,675,-0.009587527252734,-0.005326403304935,0.000000000000000,-8.815585136413574,0.790098607540131,-8.638411521911621,28.44
10,676,-0.009587527252734,-0.005326403304935,0.000000000000000,-8.815585136413574,0.790098607540131,-8.638411521911621,28.44
10,677,-0.006391684990376,-0.006391684990376,0.000000000000000,-8.801219940185546,0.737425386905670,-8.580949783325195,28.45
10,678,-0.011718087829649,-0.004261123016477,0.001065280754119,-8.810796737670898,0.790098607540131,-8.643199920654296,28.43
10,679,-0.008522246032953,-0.005326403304935,0.001065280754119,-8.815585136413574,0.751790821552277,-8.614469528198242,28.45
10,680,-0.010652806609869,-0.005326403304935,0.001065280754119,-8.815585136413574,0.790098607540131,-8.628834724426269,28.44
10,681,-0.007456964813173,-0.005326403304935,0.000000000000000,-8.815585136413574,0.732636928558350,-8.590526580810546,28.44
10,682,-0.010652806609869,-0.005326403304935,0.000000000000000,-8.791643142700195,0.785310149192810,-8.595314979553222,28.45
10,683,-0.009587527252734,-0.006391684990376,0.000000000000000,-8.820373535156250,0.713482975959778,-8.595314979553222,28.47
10,684,-0.009587527252734,-0.006391684990376,0.000000000000000,-8.820373535156250,0.713482975959778,-8.595314979553222,28.47
10,685,-0.010652806609869,-0.005326403304935,0.001065280754119,-8.810796737670898,0.761367738246918,-8.604892730712890,28.45
10,686,-0.009587527252734,-0.006391684990376,-0.001065280754119,-8.791643142700195,0.766156256198883,-8.566584587097167,28.45
10,687,-0.010652806609869,-0.005326403304935,0.000000000000000,-8.834739685058593,0.785310149192810,-8.595314979553222,28.45
10,688,-0.011718087829649,-0.006391684990376,0.001065280754119,-8.801219940185546,0.766156256198883,-8.647988319396972,28.45
10,689,-0.009587527252734,-0.004261123016477,0.001065280754119,-8.829950332641601,0.799675583839417,-8.600103378295898,28.44
10,690,-0.008522246032953,-0.006391684990376,0.000000000000000,-8.829950332641601,0.766156256198883,-8.609681129455566,28.45
10,691,-0.010652806609869,-0.004261123016477,0.001065280754119,-8.834739685058593,0.756579279899597,-8.557006835937500,28.45
10,692,-0.008522246032953,-0.006391684990376,0.001065280754119,-8.820373535156250,0.742213845252991,-8.643199920654296,28.44
10,693,-0.011718087829649,-0.005326403304935,0.001065280754119,-8.825161933898925,0.775733172893524,-8.619257926940917,28.46
10,694,-0.008522246032953,-0.005326403304935,0.001065280754119,-8.820373535156250,0.785310149192810,-8.566584587097167,28.46
10,695,-0.010652806609869,-0.007456964813173,-0.001065280754119,-8.767700195312500,0.799675583839417,-8.590526580810546,28.43
10,696,-0.008522246032953,-0.006391684990376,0.000000000000000,-8.815585136413574,0.751790821552277,-8.566584587097167,28.45
10,697,-0.009587527252734,-0.006391684990376,-0.001065280754119,-8.834739685058593,0.747002303600311,-8.552218437194824,28.45
10,698,-0.010652806609869,-0.006391684990376,0.001065280754119,-8.849104881286621,0.770944714546204,-8.595314979553222,28.45
10,699,-0.010652806609869,-0.006391684990376,0.001065280754119,-8.849104881286621,0.770944714546204,-8.595314979553222,28.45
10,700,-0.009587527252734,-0.005326403304935,0.001065280754119,-8.849104881286621,0.727848410606384,-8.590526580810546,28.44
10,701,-0.009587527252734,-0.006391684990376,0.001065280754119,-8.810796737670898,0.751790821552277,-8.595314979553222,28.44
10,702,-0.009587527252734,-0.006391684990376,0.000000000000000,-8.858681678771972,0.766156256198883,-8.533064842224121,28.45
10,703,-0.010652806609869,-0.004261123016477,0.000000000000000,-8.801219940185546,0.785310149192810,-8.609681129455566,28.45
10,704,-0.010652806609869,-0.005326403304935,0.002130561508238,-8.786853790283203,0.751790821552277,-8.595314979553222,28.45
10,705,-0.009587527252734,-0.006391684990376,0.000000000000000,-8.796431541442871,0.775733172893524,-8.595314979553222,28.44
10,706,-0.010652806609869,-0.004261123016477,0.000000000000000,-8.834739685058593,0.756579279899597,-8.619257926940917,28.46
10,707,-0.010652806609869,-0.004261123016477,0.000000000000000,-8.834739685058593,0.756579279899597,-8.619257926940917,28.46
10,708,-0.011718087829649,-0.005326403304935,0.001065280754119,-8.796431541442871,0.775733172893524,-8.619257926940917,28.47
10,709,-0.009587527252734,-0.006391684990376,0.000000000000000,-8.825161933898925,0.756579279899597,-8.619257926940917,28.45
10,710,-0.009587527252734,-0.005326403304935,0.001065280754119,-8.810796737670898,0.747002303600311,-8.590526580810546,28.45
10,711,-0.010652806609869,-0.004261123016477,0.000000000000000,-8.844316482543945,0.737425386905670,-8.604892730712890,28.44
10,712,-0.007456964813173,-0.005326403304935,0.000000000000000,-8.801219940185546,0.751790821552277,-8.576161384582519,28.45
10,713,-0.010652806609869,-0.007456964813173,0.001065280754119,-8.849104881286621,0.770944714546204,-8.600103378295898,28.44
10,714,-0.010652806609869,-0.005326403304935,0.000000000000000,-8.825161933898925,0.775733172893524,-8.580949783325195,28.45
10,715,-0.010652806609869,-0.005326403304935,0.000000000000000,-8.825161933898925,0.775733172893524,-8.580949783325195,28.45
10,716,-0.011718087829649,-0.005326403304935,0.000000000000000,-8.815585136413574,0.799675583839417,-8.614469528198242,28.45
10,717,-0.010652806609869,-0.005326403304935,0.001065280754119,-8.825161933898925,0.756579279899597,-8.600103378295898,28.45
10,718,-0.007456964813173,-0.006391684990376,0.000000000000000,-8.820373535156250,0.742213845252991,-8.604892730712890,28.46
10,719,-0.011718087829649,-0.006391684990376,0.001065280754119,-8.825161933898925,0.790098607540131,-8.557006835937500,28.45
10,720,-0.006391684990376,-0.006391684990376,0.001065280754119,-8.810796737670898,0.737425386905670,-8.643199920654296,28.46
10,721,-0.012783369980752,-0.004261123016477,0.002130561508238,-8.834739685058593,0.770944714546204,-8.561796188354492,28.46
10,722,-0.012783369980752,-0.004261123016477,0.002130561508238,-8.834739685058593,0.770944714546204,-8.561796188354492,28.46
10,723,-0.009587527252734,-0.003195842495188,0.001065280754119,-8.786853790283203,0.809252500534058,-8.580949783325195,28.46
10,724,-0.009587527252734,-0.007456964813173,0.001065280754119,-8.791643142700195,0.756579279899597,-8.600103378295898,28.47
10,725,-0.010652806609869,-0.004261123016477,0.001065280754119,-8.772488594055175,0.804464042186737,-8.561796188354492,28.48
10,726,-0.010652806609869,-0.006391684990376,0.001065280754119,-8.868258476257324,0.742213845252991,-8.628834724426269,28.46
10,727,-0.008522246032953,-0.006391684990376,0.001065280754119,-8.777276992797851,0.770944714546204,-8.590526580810546,28.46
10,728,-0.010652806609869,-0.005326403304935,0.001065280754119,-8.873046875000000,0.737425386905670,-8.561796188354492,28.46
10,729,-0.009587527252734,-0.007456964813173,0.000000000000000,-8.815585136413574,0.794887065887451,-8.552218437194824,28.46
10,730,-0.009587527252734,-0.007456964813173,0.000000000000000,-8.815585136413574,0.794887065887451,-8.552218437194824,28.46
10,731,-0.007456964813173,-0.006391684990376,-0.001065280754119,-8.801219940185546,0.766156256198883,-8.604892730712890,28.45
10,732,-0.012783369980752,-0.005326403304935,0.000000000000000,-8.815585136413574,0.780521690845490,-8.566584587097167,28.46
10,733,-0.006391684990376,-0.007456964813173,0.000000000000000,-8.796431541442871,0.756579279899597,-8.580949783325195,28.45
10,734,-0.011718087829649,-0.005326403304935,0.001065280754119,-8.815585136413574,0.804464042186737,-8.624046325683593,28.46
10,735,-0.007456964813173,-0.006391684990376,0.001065280754119,-8.815585136413574,0.737425386905670,-8.595314979553222,28.46
10,736,-0.011718087829649,-0.007456964813173,0.000000000000000,-8.839528083801269,0.756579279899597,-8.552218437194824,28.46
10,737,-0.009587527252734,-0.005326403304935,0.001065280754119,-8.810796737670898,0.790098607540131,-8.552218437194824,28.46
10,738,-0.009587527252734,-0.005326403304935,0.001065280754119,-8.810796737670898,0.790098607540131,-8.552218437194824,28.46
10,739,-0.010652806609869,-0.006391684990376,0.001065280754119,-8.815585136413574,0.742213845252991,-8.633623123168945,28.46
10,740,-0.008522246032953,-0.005326403304935,0.001065280754119,-8.786853790283203,0.761367738246918,-8.585738182067871,28.48
10,741,-0.012783369980752,-0.004261123016477,0.001065280754119,-8.815585136413574,0.761367738246918,-8.600103378295898,28.44
10,742,-0.009587527252734,-0.007456964813173,-0.001065280754119,-8.801219940185546,0.775733172893524,-8.509122848510742,28.46
10,743,-0.010652806609869,-0.005326403304935,0.001065280754119,-8.829950332641601,0.794887065887451,-8.585738182067871,28.45
10,744,-0.010652806609869,-0.006391684990376,0.001065280754119,-8.863470077514648,0.747002303600311,-8.542641639709472,28.45
10,745,-0.010652806609869,-0.004261123016477,0.000000000000000,-8.815585136413574,0.766156256198883,-8.595314979553222,28.45
10,746,-0.010652806609869,-0.004261123016477,0.000000000000000,-8.815585136413574,0.766156256198883,-8.595314979553222,28.45
10,747,-0.011718087829649,-0.004261123016477,0.000000000000000,-8.782065391540527,0.780521690845490,-8.580949783325195,28.47
10,748,-0.007456964813173,-0.006391684990376,0.001065280754119,-8.796431541442871,0.780521690845490,-8.590526580810546,28.46
10,749,-0.009587527252734,-0.006391684990376,0.002130561508238,-8.844316482543945,0.756579279899597,-8.628834724426269,28.45
10,750,-0.010652806609869,-0.006391684990376,0.001065280754119,-8.796431541442871,0.747002303600311,-8.604892730712890,28.46
10,751,-0.007456964813173,-0.007456964813173,0.000000000000000,-8.806008338928222,0.737425386905670,-8.604892730712890,28.44
10,752,-0.010652806609869,-0.004261123016477,0.001065280754119,-8.853893280029296,0.809252500534058,-8.619257926940917,28.45
10,753,-0.010652806609869,-0.004261123016477,0.001065280754119,-8.853893280029296,0.809252500534058,-8.619257926940917,28.45
10,754,-0.010652806609869,-0.005326403304935,0.001065280754119,-8.825161933898925,0.804464042186737,-8.647988319396972,28.47
10,755,-0.009587527252734,-0.006391684990376,0.000000000000000,-8.791643142700195,0.790098607540131,-8.647988319396972,28.46
10,756,-0.011718087829649,-0.006391684990376,0.000000000000000,-8.849104881286621,0.723059952259064,-8.561796188354492,28.45
10,757,-0.010652806609869,-0.006391684990376,0.001065280754119,-8.810796737670898,0.790098607540131,-8.628834724426269,28.46
10,758,-0.011718087829649,-0.005326403304935,0.001065280754119,-8.820373535156250,0.751790821552277,-8.609681129455566,28.45
10,759,-0.008522246032953,-0.006391684990376,0.000000000000000,-8.810796737670898,0.770944714546204,-8.619257926940917,28.47
10,760,-0.010652806609869,-0.005326403304935,0.000000000000000,-8.772488594055175,0.756579279899597,-8.604892730712890,28.47
10,761,-0.010652806609869,-0.005326403304935,0.000000000000000,-8.772488594055175,0.756579279899597,-8.604892730712890,28.47
10,762,-0.009587527252734,-0.005326403304935,0.001065280754119,-8.839528083801269,0.785310149192810,-8.542641639709472,28.46
10,763,-0.009587527252734,-0.005326403304935,0.000000000000000,-8.786853790283203,0.775733172893524,-8.671930313110351,28.47
10,764,-0.008522246032953,-0.006391684990376,0.001065280754119,-8.820373535156250,0.761367738246918,-8.585738182067871,28.46
10,765,-0.010652806609869,-0.005326403304935,0.001065280754119,-8.815585136413574,0.775733172893524,-8.624046325683593,28.46
10,766,-0.006391684990376,-0.006391684990376,0.000000000000000,-8.815585136413574,0.804464042186737,-8.609681129455566,28.45
10,767,-0.011718087829649,-0.006391684990376,0.001065280754119,-8.820373535156250,0.770944714546204,-8.705450057983398,28.46
10,768,-0.007456964813173,-0.008522246032953,-0.001065280754119,-8.825161933898925,0.742213845252991,-8.600103378295898,28.45
10,769,-0.007456964813173,-0.008522246032953,-0.001065280754119,-8.825161933898925,0.742213845252991,-8.600103378295898,28.45
10,770,-0.010652806609869,-0.004261123016477,0.000000000000000,-8.801219940185546,0.737425386905670,-8.619257926940917,28.46
10,771,-0.009587527252734,-0.006391684990376,0.000000000000000,-8.820373535156250,0.761367738246918,-8.595314979553222,28.48
10,772,-0.009587527252734,-0.006391684990376,0.002130561508238,-8.786853790283203,0.737425386905670,-8.585738182067871,28.44
10,773,-0.010652806609869,-0.006391684990376,0.001065280754119,-8.834739685058593,0.790098607540131,-8.566584587097167,28.47
10,774,-0.009587527252734,-0.005326403304935,0.001065280754119,-8.753334999084472,0.751790821552277,-8.590526580810546,28.46
10,775,-0.010652806609869,-0.006391684990376,0.000000000000000,-8.820373535156250,0.814041018486023,-8.619257926940917,28.48
10,776,-0.009587527252734,-0.007456964813173,0.001065280754119,-8.748546600341796,0.780521690845490,-8.576161384582519,28.47
10,777,-0.009587527252734,-0.007456964813173,0.001065280754119,-8.748546600341796,0.780521690845490,-8.576161384582519,28.47
10,778,-0.010652806609869,-0.006391684990376,0.001065280754119,-8.868258476257324,0.775733172893524,-8.657565116882324,28.47
10,779,-0.009587527252734,-0.005326403304935,0.000000000000000,-8.815585136413574,0.761367738246918,-8.590526580810546,28.46
10,780,-0.010652806609869,-0.005326403304935,0.001065280754119,-8.791643142700195,0.756579279899597,-8.619257926940917,28.45
10,781,-0.009587527252734,-0.007456964813173,0.000000000000000,-8.758123397827148,0.804464042186737,-8.619257926940917,28.46
10,782,-0.010652806609869,-0.005326403304935,0.000000000000000,-8.815585136413574,0.756579279899597,-8.595314979553222,28.44
10,783,-0.009587527252734,-0.005326403304935,0.001065280754119,-8.782065391540527,0.747002303600311,-8.638411521911621,28.45
10,784,-0.009587527252734,-0.005326403304935,0.001065280754119,-8.782065391540527,0.747002303600311,-8.638411521911621,28.45
10,785,-0.008522246032953,-0.006391684990376,0.001065280754119,-8.791643142700195,0.780521690845490,-8.638411521911621,28.45
10,786,-0.011718087829649,-0.004261123016477,0.001065280754119,-8.810796737670898,0.737425386905670,-8.647988319396972,28.47
10,787,-0.008522246032953,-0.007456964813173,0.000000000000000,-8.786853790283203,0.761367738246918,-8.600103378295898,28.44
10,788,-0.011718087829649,-0.004261123016477,0.001065280754119,-8.786853790283203,0.785310149192810,-8.585738182067871,28.45
10,789,-0.010652806609869,-0.006391684990376,0.001065280754119,-8.815585136413574,0.727848410606384,-8.633623123168945,28.47
10,790,-0.010652806609869,-0.005326403304935,0.001065280754119,-8.820373535156250,0.761367738246918,-8.624046325683593,28.47
10,791,-0.010652806609869,-0.005326403304935,0.001065280754119,-8.815585136413574,0.761367738246918,-8.590526580810546,28.48
10,792,-0.010652806609869,-0.005326403304935,0.001065280754119,-8.815585136413574,0.761367738246918,-8.590526580810546,28.48
10,793,-0.010652806609869,-0.004261123016477,0.001065280754119,-8.820373535156250,0.775733172893524,-8.552218437194824,28.47
10,794,-0.009587527252734,-0.006391684990376,0.000000000000000,-8.786853790283203,0.785310149192810,-8.624046325683593,28.47
10,795,-0.012783369980752,-0.005326403304935,0.000000000000000,-8.810796737670898,0.751790821552277,-8.652776718139648,28.46
10,796,-0.008522246032953,-0.005326403304935,0.000000000000000,-8.820373535156250,0.780521690845490,-8.590526580810546,28.46
10,797,-0.011718087829649,-0.004261123016477,0.000000000000000,-8.820373535156250,0.809252500534058,-8.600103378295898,28.47
10,798,-0.009587527252734,-0.006391684990376,-0.001065280754119,-8.839528083801269,0.747002303600311,-8.595314979553222,28.45
10,799,-0.011718087829649,-0.005326403304935,0.000000000000000,-8.801219940185546,0.775733172893524,-8.576161384582519,28.47
10,800,-0.011718087829649,-0.005326403304935,0.000000000000000,-8.801219940185546,0.775733172893524,-8.576161384582519,28.47
10,801,-0.012783369980752,-0.004261123016477,0.000000000000000,-8.825161933898925,0.775733172893524,-8.580949783325195,28.48
10,802,-0.009587527252734,-0.006391684990376,0.000000000000000,-8.791643142700195,0.737425386905670,-8.552218437194824,28.47
10,803,-0.009587527252734,-0.005326403304935,0.001065280754119,-8.791643142700195,0.775733172893524,-8.590526580810546,28.46
10,804,-0.011718087829649,-0.005326403304935,0.001065280754119,-8.796431541442871,0.747002303600311,-8.561796188354492,28.47
10,805,-0.009587527252734,-0.006391684990376,0.000000000000000,-8.810796737670898,0.761367738246918,-8.580949783325195,28.46
10,806,-0.011718087829649,-0.005326403304935,0.000000000000000,-8.777276992797851,0.756579279899597,-8.604892730712890,28.48
10,807,-0.008522246032953,-0.005326403304935,0.000000000000000,-8.820373535156250,0.747002303600311,-8.624046325683593,28.45
10,808,-0.008522246032953,-0.005326403304935,0.000000000000000,-8.820373535156250,0.747002303600311,-8.624046325683593,28.45
10,809,-0.008522246032953,-0.007456964813173,0.001065280754119,-8.853893280029296,0.747002303600311,-8.576161384582519,28.46
10,810,-0.010652806609869,-0.005326403304935,-0.001065280754119,-8.810796737670898,0.775733172893524,-8.585738182067871,28.45
10,811,-0.008522246032953,-0.007456964813173,0.001065280754119,-8.849104881286621,0.761367738246918,-8.561796188354492,28.46
10,812,-0.009587527252734,-0.006391684990376,0.000000000000000,-8.801219940185546,0.770944714546204,-8.547430038452148,28.46
10,813,-0.008522246032953,-0.007456964813173,0.000000000000000,-8.806008338928222,0.775733172893524,-8.557006835937500,28.48
10,814,-0.011718087829649,-0.005326403304935,0.000000000000000,-8.839528083801269,0.756579279899597,-8.691084861755371,28.49
10,815,-0.011718087829649,-0.005326403304935,0.000000000000000,-8.839528083801269,0.756579279899597,-8.691084861755371,28.49
10,816,-0.010652806609869,-0.005326403304935,0.002130561508238,-8.834739685058593,0.814041018486023,-8.600103378295898,28.46
10,817,-0.010652806609869,-0.005326403304935,-0.001065280754119,-8.762911796569824,0.790098607540131,-8.576161384582519,28.46
10,818,-0.008522246032953,-0.006391684990376,0.001065280754119,-8.820373535156250,0.766156256198883,-8.595314979553222,28.46
10,819,-0.011718087829649,-0.005326403304935,0.000000000000000,-8.777276992797851,0.780521690845490,-8.561796188354492,28.47
10,820,-0.006391684990376,-0.006391684990376,0.000000000000000,-8.820373535156250,0.751790821552277,-8.480391502380371,28.46
10,821,-0.011718087829649,-0.005326403304935,0.001065280754119,-8.806008338928222,0.823617935180664,-8.590526580810546,28.46
10,822,-0.008522246032953,-0.006391684990376,0.000000000000000,-8.815585136413574,0.794887065887451,-8.580949783325195,28.45
10,823,-0.008522246032953,-0.006391684990376,0.000000000000000,-8.815585136413574,0.794887065887451,-8.580949783325195,28.45
10,824,-0.009587527252734,-0.006391684990376,0.001065280754119,-8.796431541442871,0.770944714546204,-8.571372985839843,28.49
10,825,-0.010652806609869,-0.005326403304935,0.000000000000000,-8.810796737670898,0.727848410606384,-8.638411521911621,28.45
10,826,-0.009587527252734,-0.006391684990376,0.002130561508238,-8.791643142700195,0.770944714546204,-8.547430038452148,28.47
10,827,-0.009587527252734,-0.004261123016477,0.001065280754119,-8.844316482543945,0.790098607540131,-8.638411521911621,28.44
10,828,-0.007456964813173,-0.006391684990376,0.000000000000000,-8.801219940185546,0.775733172893524,-8.590526580810546,28.48
10,829,-0.010652806609869,-0.005326403304935,0.001065280754119,-8.796431541442871,0.799675583839417,-8.604892730712890,28.48
10,830,-0.010652806609869,-0.006391684990376,0.002130561508238,-8.782065391540527,0.761367738246918,-8.595314979553222,28.47
10,831,-0.010652806609869,-0.006391684990376,0.002130561508238,-8.782065391540527,0.761367738246918,-8.595314979553222,28.47
10,832,-0.011718087829649,-0.005326403304935,0.001065280754119,-8.806008338928222,0.756579279899597,-8.557006835937500,28.47
10,833,-0.008522246032953,-0.008522246032953,0.000000000000000,-8.839528083801269,0.770944714546204,-8.619257926940917,28.45
10,834,-0.011718087829649,-0.006391684990376,0.000000000000000,-8.791643142700195,0.785310149192810,-8.576161384582519,28.48
10,835,-0.009587527252734,-0.005326403304935,0.000000000000000,-8.801219940185546,0.737425386905670,-8.528276443481445,28.48
10,836,-0.010652806609869,-0.005326403304935,0.000000000000000,-8.801219940185546,0.780521690845490,-8.537853240966796,28.48
10,837,-0.008522246032953,-0.006391684990376,0.000000000000000,-8.815585136413574,0.727848410606384,-8.571372985839843,28.45
10,838,-0.011718087829649,-0.006391684990376,0.001065280754119,-8.820373535156250,0.761367738246918,-8.585738182067871,28.47
10,839,-0.011718087829649,-0.006391684990376,0.001065280754119,-8.820373535156250,0.761367738246918,-8.585738182067871,28.47
10,840,-0.010652806609869,-0.005326403304935,0.000000000000000,-8.791643142700195,0.766156256198883,-8.585738182067871,28.49
10,841,-0.008522246032953,-0.006391684990376,0.000000000000000,-8.829950332641601,0.751790821552277,-8.624046325683593,28.47
10,842,-0.012783369980752,-0.003195842495188,0.001065280754119,-8.801219940185546,0.809252500534058,-8.609681129455566,28.45
10,843,-0.008522246032953,-0.006391684990376,0.001065280754119,-8.844316482543945,0.737425386905670,-8.537853240966796,28.47
10,844,-0.010652806609869,-0.006391684990376,0.000000000000000,-8.858681678771972,0.775733172893524,-8.576161384582519,28.46
10,845,-0.010652806609869,-0.005326403304935,0.000000000000000,-8.806008338928222,0.780521690845490,-8.609681129455566,28.46
10,846,-0.010652806609869,-0.005326403304935,0.000000000000000,-8.806008338928222,0.780521690845490,-8.609681129455566,28.46
10,847,-0.011718087829649,-0.005326403304935,0.001065280754119,-8.820373535156250,0.804464042186737,-8.552218437194824,28.47
10,848,-0.006391684990376,-0.007456964813173,0.000000000000000,-8.791643142700195,0.747002303600311,-8.571372985839843,28.46
10,849,-0.010652806609869,-0.005326403304935,0.001065280754119,-8.829950332641601,0.780521690845490,-8.628834724426269,28.49
10,850,-0.009587527252734,-0.006391684990376,0.000000000000000,-8.810796737670898,0.766156256198883,-8.600103378295898,28.46
10,851,-0.009587527252734,-0.005326403304935,0.000000000000000,-8.844316482543945,0.770944714546204,-8.542641639709472,28.47
10,852,-0.009587527252734,-0.005326403304935,0.001065280754119,-8.825161933898925,0.766156256198883,-8.619257926940917,28.48
10,853,-0.010652806609869,-0.004261123016477,0.000000000000000,-8.762911796569824,0.756579279899597,-8.571372985839843,28.48
10,854,-0.010652806609869,-0.004261123016477,0.000000000000000,-8.762911796569824,0.756579279899597,-8.571372985839843,28.48
10,855,-0.010652806609869,-0.005326403304935,0.001065280754119,-8.834739685058593,0.770944714546204,-8.628834724426269,28.46
10,856,-0.009587527252734,-0.007456964813173,0.000000000000000,-8.825161933898925,0.790098607540131,-8.557006835937500,28.45
10,857,-0.008522246032953,-0.005326403304935,0.000000000000000,-8.810796737670898,0.766156256198883,-8.576161384582519,28.47
10,858,-0.010652806609869,-0.007456964813173,0.000000000000000,-8.839528083801269,0.737425386905670,-8.566584587097167,28.47
10,859,-0.009587527252734,-0.005326403304935,0.001065280754119,-8.810796737670898,0.723059952259064,-8.624046325683593,28.47
10,860,-0.011718087829649,-0.005326403304935,0.002130561508238,-8.829950332641601,0.775733172893524,-8.590526580810546,28.48
10,861,-0.008522246032953,-0.007456964813173,0.001065280754119,-8.796431541442871,0.723059952259064,-8.580949783325195,28.47
10,862,-0.008522246032953,-0.007456964813173,0.001065280754119,-8.796431541442871,0.723059952259064,-8.580949783325195,28.47
10,863,-0.007456964813173,-0.006391684990376,0.000000000000000,-8.810796737670898,0.766156256198883,-8.595314979553222,28.47
10,864,-0.010652806609869,-0.005326403304935,0.000000000000000,-8.815585136413574,0.775733172893524,-8.571372985839843,28.47
10,865,-0.008522246032953,-0.005326403304935,-0.001065280754119,-8.810796737670898,0.775733172893524,-8.523488044738769,28.45
10,866,-0.009587527252734,-0.006391684990376,0.001065280754119,-8.820373535156250,0.770944714546204,-8.604892730712890,28.47
10,867,-0.009587527252734,-0.007456964813173,0.000000000000000,-8.810796737670898,0.780521690845490,-8.552218437194824,28.47
10,868,-0.009587527252734,-0.004261123016477,0.000000000000000,-8.815585136413574,0.756579279899597,-8.657565116882324,28.46
10,869,-0.008522246032953,-0.007456964813173,0.000000000000000,-8.806008338928222,0.756579279899597,-8.547430038452148,28.48
10,870,-0.008522246032953,-0.007456964813173,0.000000000000000,-8.806008338928222,0.756579279899597,-8.547430038452148,28.48
10,871,-0.009587527252734,-0.007456964813173,0.000000000000000,-8.820373535156250,0.756579279899597,-8.600103378295898,28.46
10,872,-0.008522246032953,-0.006391684990376,0.001065280754119,-8.782065391540527,0.751790821552277,-8.595314979553222,28.48
10,873,-0.011718087829649,-0.005326403304935,0.000000000000000,-8.806008338928222,0.737425386905670,-8.576161384582519,28.46
10,874,-0.007456964813173,-0.006391684990376,0.000000000000000,-8.834739685058593,0.780521690845490,-8.624046325683593,28.47
10,875,-0.012783369980752,-0.005326403304935,0.001065280754119,-8.829950332641601,0.751790821552277,-8.624046325683593,28.48
10,876,-0.007456964813173,-0.006391684990376,0.000000000000000,-8.825161933898925,0.766156256198883,-8.561796188354492,28.50
10,877,-0.007456964813173,-0.006391684990376,0.000000000000000,-8.825161933898925,0.766156256198883,-8.561796188354492,28.50
10,878,-0.009587527252734,-0.005326403304935,0.000000000000000,-8.815585136413574,0.799675583839417,-8.580949783325195,28.47
10,879,-0.009587527252734,-0.006391684990376,0.000000000000000,-8.825161933898925,0.756579279899597,-8.571372985839843,28.48
10,880,-0.009587527252734,-0.006391684990376,0.000000000000000,-8.810796737670898,0.790098607540131,-8.580949783325195,28.46
10,881,-0.011718087829649,-0.005326403304935,0.001065280754119,-8.806008338928222,0.761367738246918,-8.552218437194824,28.48
10,882,-0.009587527252734,-0.005326403304935,0.000000000000000,-8.825161933898925,0.761367738246918,-8.604892730712890,28.47
10,883,-0.010652806609869,-0.004261123016477,0.000000000000000,-8.839528083801269,0.761367738246918,-8.576161384582519,28.48
10,884,-0.009587527252734,-0.007456964813173,0.001065280754119,-8.762911796569824,0.790098607540131,-8.600103378295898,28.47
10,885,-0.009587527252734,-0.007456964813173,0.001065280754119,-8.762911796569824,0.790098607540131,-8.600103378295898,28.47
10,886,-0.010652806609869,-0.005326403304935,0.001065280754119,-8.786853790283203,0.770944714546204,-8.624046325683593,28.47
10,887,-0.009587527252734,-0.006391684990376,0.000000000000000,-8.791643142700195,0.756579279899597,-8.547430038452148,28.48
10,888,-0.012783369980752,-0.005326403304935,0.000000000000000,-8.834739685058593,0.790098607540131,-8.619257926940917,28.48
10,889,-0.007456964813173,-0.005326403304935,0.000000000000000,-8.829950332641601,0.713482975959778,-8.609681129455566,28.47
10,890,-0.010652806609869,-0.005326403304935,-0.001065280754119,-8.762911796569824,0.785310149192810,-8.580949783325195,28.47
10,891,-0.009587527252734,-0.005326403304935,0.000000000000000,-8.820373535156250,0.766156256198883,-8.652776718139648,28.48
10,892,-0.010652806609869,-0.006391684990376,0.000000000000000,-8.791643142700195,0.766156256198883,-8.571372985839843,28.46
10,893,-0.010652806609869,-0.006391684990376,0.000000000000000,-8.791643142700195,0.766156256198883,-8.571372985839843,28.46
10,894,-0.009587527252734,-0.006391684990376,-0.001065280754119,-8.801219940185546,0.780521690845490,-8.614469528198242,28.46
10,895,-0.008522246032953,-0.006391684990376,0.001065280754119,-8.815585136413574,0.804464042186737,-8.571372985839843,28.46
10,896,-0.010652806609869,-0.005326403304935,0.001065280754119,-8.772488594055175,0.790098607540131,-8.667141914367675,28.47
10,897,-0.009587527252734,-0.006391684990376,0.001065280754119,-8.801219940185546,0.751790821552277,-8.595314979553222,28.47
10,898,-0.011718087829649,-0.006391684990376,0.000000000000000,-8.815585136413574,0.809252500534058,-8.609681129455566,28.47
10,899,-0.010652806609869,-0.005326403304935,0.000000000000000,-8.786853790283203,0.770944714546204,-8.547430038452148,28.48
10,900,-0.008522246032953,-0.006391684990376,0.000000000000000,-8.815585136413574,0.756579279899597,-8.600103378295898,28.47
10,901,-0.008522246032953,-0.006391684990376,0.000000000000000,-8.815585136413574,0.756579279899597,-8.600103378295898,28.47
10,902,-0.008522246032953,-0.006391684990376,0.000000000000000,-8.796431541442871,0.761367738246918,-8.580949783325195,28.47
10,903,-0.011718087829649,-0.006391684990376,0.000000000000000,-8.834739685058593,0.775733172893524,-8.537853240966796,28.48
10,904,-0.007456964813173,-0.006391684990376,0.001065280754119,-8.810796737670898,0.766156256198883,-8.643199920654296,28.49
10,905,-0.011718087829649,-0.004261123016477,0.000000000000000,-8.829950332641601,0.804464042186737,-8.585738182067871,28.49
10,906,-0.008522246032953,-0.006391684990376,0.002130561508238,-8.839528083801269,0.775733172893524,-8.595314979553222,28.47
10,907,-0.010652806609869,-0.005326403304935,0.000000000000000,-8.782065391540527,0.737425386905670,-8.600103378295898,28.47
10,908,-0.010652806609869,-0.005326403304935,0.000000000000000,-8.782065391540527,0.737425386905670,-8.600103378295898,28.47
10,909,-0.011718087829649,-0.005326403304935,0.001065280754119,-8.815585136413574,0.785310149192810,-8.624046325683593,28.47
10,910,-0.009587527252734,-0.007456964813173,0.001065280754119,-8.825161933898925,0.785310149192810,-8.566584587097167,28.46
10,911,-0.010652806609869,-0.006391684990376,0.000000000000000,-8.810796737670898,0.780521690845490,-8.585738182067871,28.47
10,912,-0.010652806609869,-0.006391684990376,0.001065280754119,-8.806008338928222,0.761367738246918,-8.585738182067871,28.48
10,913,-0.009587527252734,-0.007456964813173,0.001065280754119,-8.820373535156250,0.742213845252991,-8.633623123168945,28.48
10,914,-0.011718087829649,-0.004261123016477,0.000000000000000,-8.796431541442871,0.780521690845490,-8.667141914367675,28.48
10,915,-0.007456964813173,-0.007456964813173,0.000000000000000,-8.806008338928222,0.761367738246918,-8.633623123168945,28.46
10,916,-0.007456964813173,-0.007456964813173,0.000000000000000,-8.806008338928222,0.761367738246918,-8.633623123168945,28.46
10,917,-0.007456964813173,-0.006391684990376,0.001065280754119,-8.839528083801269,0.785310149192810,-8.657565116882324,28.48
10,918,-0.011718087829649,-0.005326403304935,0.000000000000000,-8.815585136413574,0.761367738246918,-8.552218437194824,28.48
10,919,-0.009587527252734,-0.005326403304935,0.001065280754119,-8.829950332641601,0.809252500534058,-8.624046325683593,28.45
10,920,-0.009587527252734,-0.005326403304935,0.001065280754119,-8.786853790283203,0.790098607540131,-8.600103378295898,28.47
10,921,-0.009587527252734,-0.005326403304935,0.001065280754119,-8.829950332641601,0.799675583839417,-8.614469528198242,28.47
10,922,-0.010652806609869,-0.005326403304935,0.000000000000000,-8.753334999084472,0.770944714546204,-8.633623123168945,28.48
10,923,-0.010652806609869,-0.006391684990376,0.000000000000000,-8.858681678771972,0.751790821552277,-8.566584587097167,28.47
10,924,-0.010652806609869,-0.006391684990376,0.000000000000000,-8.858681678771972,0.751790821552277,-8.566584587097167,28.47
10,925,-0.010652806609869,-0.005326403304935,-0.001065280754119,-8.796431541442871,0.747002303600311,-8.614469528198242,28.49
10,926,-0.007456964813173,-0.006391684990376,0.000000000000000,-8.796431541442871,0.794887065887451,-8.595314979553222,28.48
10,927,-0.011718087829649,-0.004261123016477,0.001065280754119,-8.796431541442871,0.785310149192810,-8.657565116882324,28.48
10,928,-0.007456964813173,-0.007456964813173,0.000000000000000,-8.834739685058593,0.766156256198883,-8.604892730712890,28.49
10,929,-0.011718087829649,-0.005326403304935,0.001065280754119,-8.829950332641601,0.785310149192810,-8.624046325683593,28.50
10,930,-0.008522246032953,-0.005326403304935,0.000000000000000,-8.839528083801269,0.737425386905670,-8.576161384582519,28.47
10,931,-0.010652806609869,-0.006391684990376,0.000000000000000,-8.810796737670898,0.747002303600311,-8.571372985839843,28.48
10,932,-0.010652806609869,-0.006391684990376,0.000000000000000,-8.810796737670898,0.747002303600311,-8.571372985839843,28.48
10,933,-0.009587527252734,-0.005326403304935,0.000000000000000,-8.810796737670898,0.766156256198883,-8.604892730712890,28.48
10,934,-0.009587527252734,-0.007456964813173,0.000000000000000,-8.815585136413574,0.761367738246918,-8.576161384582519,28.49
10,935,-0.010652806609869,-0.006391684990376,0.001065280754119,-8.777276992797851,0.766156256198883,-8.657565116882324,28.49
10,936,-0.009587527252734,-0.007456964813173,0.000000000000000,-8.853893280029296,0.766156256198883,-8.576161384582519,28.49
10,937,-0.009587527252734,-0.006391684990376,0.001065280754119,-8.801219940185546,0.775733172893524,-8.638411521911621,28.49
10,938,-0.009587527252734,-0.006391684990376,0.001065280754119,-8.820373535156250,0.799675583839417,-8.624046325683593,28.48
10,939,-0.009587527252734,-0.006391684990376,0.001065280754119,-8.820373535156250,0.799675583839417,-8.624046325683593,28.48
10,940,-0.010652806609869,-0.006391684990376,0.000000000000000,-8.806008338928222,0.770944714546204,-8.600103378295898,28.48
10,941,-0.008522246032953,-0.006391684990376,0.000000000000000,-8.825161933898925,0.751790821552277,-8.528276443481445,28.49
10,942,-0.012783369980752,-0.005326403304935,0.000000000000000,-8.796431541442871,0.770944714546204,-8.600103378295898,28.49
10,943,-0.007456964813173,-0.007456964813173,0.000000000000000,-8.829950332641601,0.751790821552277,-8.600103378295898,28.49
10,944,-0.010652806609869,-0.006391684990376,-0.001065280754119,-8.820373535156250,0.790098607540131,-8.590526580810546,28.47
10,945,-0.009587527252734,-0.005326403304935,0.001065280754119,-8.825161933898925,0.747002303600311,-8.576161384582519,28.48
10,946,-0.009587527252734,-0.006391684990376,0.001065280754119,-8.782065391540527,0.790098607540131,-8.595314979553222,28.49
10,947,-0.009587527252734,-0.006391684990376,0.001065280754119,-8.782065391540527,0.790098607540131,-8.595314979553222,28.49
10,948,-0.010652806609869,-0.006391684990376,0.000000000000000,-8.791643142700195,0.785310149192810,-8.585738182067871,28.50
10,949,-0.009587527252734,-0.005326403304935,0.001065280754119,-8.873046875000000,0.770944714546204,-8.580949783325195,28.48
10,950,-0.011718087829649,-0.006391684990376,0.000000000000000,-8.782065391540527,0.785310149192810,-8.557006835937500,28.48
10,951,-0.010652806609869,-0.006391684990376,0.001065280754119,-8.820373535156250,0.751790821552277,-8.614469528198242,28.49
10,952,-0.011718087829649,-0.006391684990376,0.001065280754119,-8.782065391540527,0.823617935180664,-8.523488044738769,28.46
10,953,-0.010652806609869,-0.006391684990376,0.000000000000000,-8.839528083801269,0.756579279899597,-8.600103378295898,28.50
10,954,-0.008522246032953,-0.006391684990376,0.001065280754119,-8.839528083801269,0.756579279899597,-8.652776718139648,28.47
10,955,-0.008522246032953,-0.006391684990376,0.001065280754119,-8.839528083801269,0.756579279899597,-8.652776718139648,28.47
10,956,-0.008522246032953,-0.006391684990376,0.000000000000000,-8.834739685058593,0.751790821552277,-8.638411521911621,28.49
10,957,-0.011718087829649,-0.005326403304935,0.001065280754119,-8.796431541442871,0.766156256198883,-8.571372985839843,28.48
10,958,-0.008522246032953,-0.005326403304935,0.001065280754119,-8.815585136413574,0.761367738246918,-8.643199920654296,28.47
10,959,-0.011718087829649,-0.005326403304935,-0.001065280754119,-8.801219940185546,0.766156256198883,-8.561796188354492,28.48
