imu,it,ex,ey,ez,ax,ay,az,temp
4,0,0.006391684990376,-0.051133479923010,0.005326403304935,-1.024734020233154,2.351141929626465,-9.600895881652832,26.39
4,1,0.007456964813173,-0.050068192183971,0.007456964813173,-1.029522418975830,2.308045625686645,-9.538644790649414,26.39
4,2,0.007456964813173,-0.049002911895514,0.006391684990376,-0.986426174640656,2.327199459075928,-9.581741333007812,26.38
4,3,0.006391684990376,-0.051133479923010,0.007456964813173,-1.010368585586548,2.384661197662353,-9.533856391906738,26.38
4,4,0.006391684990376,-0.049002911895514,0.006391684990376,-1.029522418975830,2.303256988525391,-9.505125999450683,26.39
4,5,0.006391684990376,-0.049002911895514,0.005326403304935,-1.015156984329224,2.341564893722534,-9.576952934265136,26.39
4,6,0.006391684990376,-0.050068192183971,0.007456964813173,-1.010368585586548,2.327199459075928,-9.509914398193359,26.39
4,7,0.006391684990376,-0.050068192183971,0.007456964813173,-1.010368585586548,2.327199459075928,-9.509914398193359,26.39
4,8,0.006391684990376,-0.049002911895514,0.005326403304935,-0.996003091335297,2.308045625686645,-9.543433189392089,26.38
4,9,0.006391684990376,-0.050068192183971,0.007456964813173,-0.996003091335297,2.331988096237183,-9.553009986877441,26.39
4,10,0.007456964813173,-0.050068192183971,0.006391684990376,-1.005580067634582,2.336776494979858,-9.533856391906738,26.39
4,11,0.007456964813173,-0.050068192183971,0.007456964813173,-1.034310936927795,2.370296001434326,-9.514702796936035,26.39
4,12,0.006391684990376,-0.049002911895514,0.006391684990376,-1.010368585586548,2.331988096237183,-9.476394653320312,26.38
4,13,0.006391684990376,-0.049002911895514,0.007456964813173,-1.029522418975830,2.365507364273071,-9.634414672851562,26.40
4,14,0.006391684990376,-0.049002911895514,0.005326403304935,-1.000791549682617,2.370296001434326,-9.562587738037109,26.38
4,15,0.006391684990376,-0.050068192183971,0.005326403304935,-1.029522418975830,2.346353530883789,-9.543433189392089,26.39
4,16,0.006391684990376,-0.049002911895514,0.006391684990376,-1.005580067634582,2.375084400177002,-9.543433189392089,26.39
4,17,0.007456964813173,-0.049002911895514,0.005326403304935,-0.991214632987976,2.308045625686645,-9.529067993164062,26.37
4,18,0.006391684990376,-0.047937631607056,0.006391684990376,-0.976849198341370,2.346353530883789,-9.519491195678710,26.37
4,19,0.006391684990376,-0.049002911895514,0.005326403304935,-0.996003091335297,2.360718727111816,-9.519491195678710,26.40
4,20,0.007456964813173,-0.049002911895514,0.006391684990376,-0.972060739994049,2.322411060333252,-9.610472679138183,26.38
4,21,0.007456964813173,-0.049002911895514,0.006391684990376,-0.972060739994049,2.322411060333252,-9.610472679138183,26.38
4,22,0.006391684990376,-0.050068192183971,0.005326403304935,-1.039099335670471,2.346353530883789,-9.567376136779785,26.39
4,23,0.005326403304935,-0.049002911895514,0.005326403304935,-1.024734020233154,2.341564893722534,-9.572164535522460,26.38
4,24,0.007456964813173,-0.050068192183971,0.006391684990376,-1.019945502281189,2.341564893722534,-9.548221588134765,26.39
4,25,0.007456964813173,-0.049002911895514,0.006391684990376,-0.996003091335297,2.322411060333252,-9.643991470336914,26.37
4,26,0.006391684990376,-0.049002911895514,0.007456964813173,-1.005580067634582,2.346353530883789,-9.553009986877441,26.39
4,27,0.006391684990376,-0.050068192183971,0.006391684990376,-0.986426174640656,2.312834262847900,-9.553009986877441,26.39
4,28,0.006391684990376,-0.047937631607056,0.005326403304935,-0.986426174640656,2.375084400177002,-9.600895881652832,26.39
4,29,0.007456964813173,-0.051133479923010,0.006391684990376,-0.986426174640656,2.341564893722534,-9.567376136779785,26.41
4,30,0.006391684990376,-0.050068192183971,0.006391684990376,-1.039099335670471,2.317622661590576,-9.562587738037109,26.39
4,31,0.007456964813173,-0.049002911895514,0.006391684990376,-0.976849198341370,2.351141929626465,-9.586529731750488,26.38
4,32,0.005326403304935,-0.051133479923010,0.006391684990376,-0.986426174640656,2.336776494979858,-9.524279594421386,26.39
4,33,0.006391684990376,-0.049002911895514,0.005326403304935,-1.019945502281189,2.331988096237183,-9.600895881652832,26.40
4,34,0.005326403304935,-0.050068192183971,0.006391684990376,-1.000791549682617,2.331988096237183,-9.485972404479980,26.39
4,35,0.005326403304935,-0.050068192183971,0.006391684990376,-1.000791549682617,2.331988096237183,-9.485972404479980,26.39
4,36,0.006391684990376,-0.047937631607056,0.005326403304935,-0.986426174640656,2.298468589782715,-9.572164535522460,26.40
4,37,0.007456964813173,-0.050068192183971,0.006391684990376,-0.986426174640656,2.360718727111816,-9.553009986877441,26.40
4,38,0.006391684990376,-0.049002911895514,0.006391684990376,-1.043887853622436,2.379872798919678,-9.567376136779785,26.38
4,39,0.007456964813173,-0.050068192183971,0.006391684990376,-1.029522418975830,2.370296001434326,-9.567376136779785,26.39
4,40,0.007456964813173,-0.049002911895514,0.006391684990376,-1.015156984329224,2.327199459075928,-9.576952934265136,26.39
4,41,0.006391684990376,-0.049002911895514,0.006391684990376,-1.039099335670471,2.365507364273071,-9.538644790649414,26.41
4,42,0.006391684990376,-0.049002911895514,0.007456964813173,-1.015156984329224,2.331988096237183,-9.514702796936035,26.37
4,43,0.005326403304935,-0.050068192183971,0.005326403304935,-1.019945502281189,2.312834262847900,-9.543433189392089,26.39
4,44,0.006391684990376,-0.050068192183971,0.006391684990376,-1.024734020233154,2.360718727111816,-9.533856391906738,26.39
4,45,0.007456964813173,-0.049002911895514,0.007456964813173,-1.010368585586548,2.298468589782715,-9.610472679138183,26.41
4,46,0.006391684990376,-0.049002911895514,0.006391684990376,-1.019945502281189,2.351141929626465,-9.576952934265136,26.38
4,47,0.007456964813173,-0.049002911895514,0.006391684990376,-0.986426174640656,2.351141929626465,-9.581741333007812,26.40
4,48,0.006391684990376,-0.047937631607056,0.006391684990376,-1.029522418975830,2.298468589782715,-9.610472679138183,26.38
4,49,0.006391684990376,-0.047937631607056,0.006391684990376,-1.029522418975830,2.298468589782715,-9.610472679138183,26.38
4,50,0.007456964813173,-0.051133479923010,0.006391684990376,-1.024734020233154,2.365507364273071,-9.553009986877441,26.40
4,51,0.006391684990376,-0.050068192183971,0.006391684990376,-1.019945502281189,2.355930328369141,-9.543433189392089,26.39
4,52,0.006391684990376,-0.050068192183971,0.006391684990376,-0.976849198341370,2.351141929626465,-9.529067993164062,26.40
4,53,0.007456964813173,-0.049002911895514,0.006391684990376,-0.996003091335297,2.322411060333252,-9.538644790649414,26.40
4,54,0.006391684990376,-0.049002911895514,0.005326403304935,-1.024734020233154,2.355930328369141,-9.553009986877441,26.39
4,55,0.005326403304935,-0.050068192183971,0.007456964813173,-1.000791549682617,2.312834262847900,-9.505125999450683,26.38
4,56,0.006391684990376,-0.049002911895514,0.006391684990376,-1.039099335670471,2.351141929626465,-9.624837875366210,26.39
4,57,0.005326403304935,-0.050068192183971,0.006391684990376,-0.986426174640656,2.336776494979858,-9.524279594421386,26.39
4,58,0.005326403304935,-0.049002911895514,0.006391684990376,-0.981637656688690,2.327199459075928,-9.557799339294433,26.40
4,59,0.006391684990376,-0.049002911895514,0.006391684990376,-1.029522418975830,2.389449834823608,-9.620049476623535,26.42
4,60,0.007456964813173,-0.049002911895514,0.005326403304935,-1.039099335670471,2.375084400177002,-9.543433189392089,26.40
4,61,0.007456964813173,-0.049002911895514,0.006391684990376,-0.986426174640656,2.346353530883789,-9.533856391906738,26.40
4,62,0.007456964813173,-0.050068192183971,0.006391684990376,-0.976849198341370,2.360718727111816,-9.591318130493164,26.40
4,63,0.007456964813173,-0.050068192183971,0.006391684990376,-0.976849198341370,2.360718727111816,-9.591318130493164,26.40
4,64,0.006391684990376,-0.049002911895514,0.006391684990376,-1.024734020233154,2.346353530883789,-9.557799339294433,26.40
4,65,0.007456964813173,-0.049002911895514,0.006391684990376,-1.024734020233154,2.336776494979858,-9.634414672851562,26.38
4,66,0.008522246032953,-0.049002911895514,0.005326403304935,-1.024734020233154,2.365507364273071,-9.529067993164062,26.40
4,67,0.007456964813173,-0.050068192183971,0.005326403304935,-1.048676371574402,2.336776494979858,-9.543433189392089,26.40
4,68,0.006391684990376,-0.047937631607056,0.005326403304935,-0.967272222042084,2.336776494979858,-9.620049476623535,26.39
4,69,0.006391684990376,-0.049002911895514,0.006391684990376,-1.053464770317078,2.360718727111816,-9.562587738037109,26.39
4,70,0.007456964813173,-0.050068192183971,0.006391684990376,-1.005580067634582,2.355930328369141,-9.557799339294433,26.39
4,71,0.006391684990376,-0.049002911895514,0.006391684990376,-1.024734020233154,2.355930328369141,-9.615261077880859,26.40
4,72,0.005326403304935,-0.050068192183971,0.006391684990376,-1.034310936927795,2.360718727111816,-9.553009986877441,26.37
4,73,0.006391684990376,-0.049002911895514,0.006391684990376,-1.000791549682617,2.341564893722534,-9.572164535522460,26.38
4,74,0.007456964813173,-0.050068192183971,0.007456964813173,-1.048676371574402,2.365507364273071,-9.610472679138183,26.39
4,75,0.006391684990376,-0.049002911895514,0.005326403304935,-1.000791549682617,2.370296001434326,-9.557799339294433,26.41
4,76,0.007456964813173,-0.047937631607056,0.006391684990376,-1.015156984329224,2.331988096237183,-9.605684280395507,26.39
4,77,0.007456964813173,-0.049002911895514,0.005326403304935,-0.967272222042084,2.355930328369141,-9.581741333007812,26.41
4,78,0.007456964813173,-0.049002911895514,0.005326403304935,-0.967272222042084,2.355930328369141,-9.581741333007812,26.41
4,79,0.007456964813173,-0.050068192183971,0.005326403304935,-1.082195639610290,2.331988096237183,-9.620049476623535,26.38
4,80,0.007456964813173,-0.050068192183971,0.006391684990376,-0.996003091335297,2.365507364273071,-9.576952934265136,26.38
4,81,0.006391684990376,-0.049002911895514,0.006391684990376,-1.015156984329224,2.298468589782715,-9.548221588134765,26.37
4,82,0.007456964813173,-0.049002911895514,0.006391684990376,-1.019945502281189,2.355930328369141,-9.548221588134765,26.39
4,83,0.006391684990376,-0.049002911895514,0.006391684990376,-0.996003091335297,2.322411060333252,-9.553009986877441,26.39
4,84,0.006391684990376,-0.050068192183971,0.006391684990376,-1.043887853622436,2.331988096237183,-9.553009986877441,26.40
4,85,0.007456964813173,-0.049002911895514,0.006391684990376,-1.005580067634582,2.322411060333252,-9.586529731750488,26.39
4,86,0.005326403304935,-0.049002911895514,0.007456964813173,-1.019945502281189,2.312834262847900,-9.591318130493164,26.40
4,87,0.007456964813173,-0.050068192183971,0.006391684990376,-0.996003091335297,2.327199459075928,-9.596106529235839,26.40
4,88,0.006391684990376,-0.049002911895514,0.006391684990376,-1.024734020233154,2.351141929626465,-9.529067993164062,26.41
4,89,0.006391684990376,-0.050068192183971,0.006391684990376,-1.019945502281189,2.341564893722534,-9.624837875366210,26.39
4,90,0.006391684990376,-0.050068192183971,0.005326403304935,-0.996003091335297,2.351141929626465,-9.548221588134765,26.39
4,91,0.006391684990376,-0.049002911895514,0.006391684990376,-0.991214632987976,2.322411060333252,-9.562587738037109,26.40
4,92,0.006391684990376,-0.049002911895514,0.006391684990376,-0.991214632987976,2.322411060333252,-9.562587738037109,26.40
4,93,0.007456964813173,-0.050068192183971,0.005326403304935,-1.043887853622436,2.355930328369141,-9.495549201965332,26.40
4,94,0.006391684990376,-0.049002911895514,0.007456964813173,-1.053464770317078,2.365507364273071,-9.634414672851562,26.41
4,95,0.005326403304935,-0.050068192183971,0.006391684990376,-0.991214632987976,2.370296001434326,-9.548221588134765,26.38
4,96,0.006391684990376,-0.047937631607056,0.006391684990376,-0.976849198341370,2.403815269470215,-9.596106529235839,26.40
4,97,0.006391684990376,-0.049002911895514,0.007456964813173,-1.043887853622436,2.384661197662353,-9.605684280395507,26.40
4,98,0.005326403304935,-0.049002911895514,0.006391684990376,-1.048676371574402,2.365507364273071,-9.586529731750488,26.40
4,99,0.006391684990376,-0.050068192183971,0.006391684990376,-1.034310936927795,2.384661197662353,-9.620049476623535,26.41
4,100,0.006391684990376,-0.050068192183971,0.005326403304935,-0.962483763694763,2.322411060333252,-9.572164535522460,26.40
4,101,0.005326403304935,-0.049002911895514,0.006391684990376,-1.015156984329224,2.360718727111816,-9.562587738037109,26.39
4,102,0.006391684990376,-0.049002911895514,0.006391684990376,-1.005580067634582,2.308045625686645,-9.500337600708007,26.38
4,103,0.007456964813173,-0.049002911895514,0.007456964813173,-0.962483763694763,2.317622661590576,-9.505125999450683,26.39
4,104,0.006391684990376,-0.049002911895514,0.007456964813173,-1.024734020233154,2.331988096237183,-9.557799339294433,26.39
4,105,0.007456964813173,-0.051133479923010,0.006391684990376,-1.048676371574402,2.322411060333252,-9.576952934265136,26.39
4,106,0.007456964813173,-0.051133479923010,0.006391684990376,-1.048676371574402,2.322411060333252,-9.576952934265136,26.39
4,107,0.006391684990376,-0.050068192183971,0.006391684990376,-0.996003091335297,2.370296001434326,-9.634414672851562,26.40
4,108,0.007456964813173,-0.047937631607056,0.006391684990376,-1.005580067634582,2.317622661590576,-9.557799339294433,26.38
4,109,0.006391684990376,-0.049002911895514,0.007456964813173,-1.029522418975830,2.394238233566284,-9.567376136779785,26.41
4,110,0.006391684990376,-0.050068192183971,0.007456964813173,-1.034310936927795,2.336776494979858,-9.524279594421386,26.39
4,111,0.006391684990376,-0.046872351318598,0.007456964813173,-0.996003091335297,2.355930328369141,-9.538644790649414,26.38
4,112,0.006391684990376,-0.050068192183971,0.006391684990376,-1.019945502281189,2.317622661590576,-9.553009986877441,26.40
4,113,0.006391684990376,-0.050068192183971,0.006391684990376,-1.024734020233154,2.298468589782715,-9.514702796936035,26.40
4,114,0.007456964813173,-0.047937631607056,0.007456964813173,-1.029522418975830,2.365507364273071,-9.615261077880859,26.39
4,115,0.007456964813173,-0.049002911895514,0.007456964813173,-1.034310936927795,2.346353530883789,-9.600895881652832,26.40
4,116,0.006391684990376,-0.049002911895514,0.005326403304935,-0.976849198341370,2.336776494979858,-9.600895881652832,26.42
4,117,0.007456964813173,-0.049002911895514,0.007456964813173,-1.000791549682617,2.341564893722534,-9.629626274108886,26.40
4,118,0.007456964813173,-0.047937631607056,0.006391684990376,-0.991214632987976,2.351141929626465,-9.485972404479980,26.40
4,119,0.006391684990376,-0.049002911895514,0.006391684990376,-1.000791549682617,2.365507364273071,-9.557799339294433,26.39
4,120,0.006391684990376,-0.049002911895514,0.006391684990376,-1.000791549682617,2.365507364273071,-9.557799339294433,26.39
4,121,0.006391684990376,-0.049002911895514,0.007456964813173,-1.039099335670471,2.394238233566284,-9.529067993164062,26.41
4,122,0.007456964813173,-0.049002911895514,0.005326403304935,-0.981637656688690,2.317622661590576,-9.548221588134765,26.40
4,123,0.007456964813173,-0.050068192183971,0.005326403304935,-0.981637656688690,2.341564893722534,-9.624837875366210,26.40
4,124,0.006391684990376,-0.047937631607056,0.006391684990376,-0.967272222042084,2.351141929626465,-9.624837875366210,26.40
4,125,0.007456964813173,-0.050068192183971,0.006391684990376,-1.063041806221008,2.336776494979858,-9.586529731750488,26.39
4,126,0.007456964813173,-0.049002911895514,0.006391684990376,-0.981637656688690,2.351141929626465,-9.615261077880859,26.39
4,127,0.007456964813173,-0.049002911895514,0.006391684990376,-1.024734020233154,2.394238233566284,-9.533856391906738,26.39
4,128,0.006391684990376,-0.049002911895514,0.006391684990376,-1.024734020233154,2.346353530883789,-9.524279594421386,26.39
4,129,0.007456964813173,-0.049002911895514,0.006391684990376,-1.000791549682617,2.331988096237183,-9.629626274108886,26.40
4,130,0.006391684990376,-0.049002911895514,0.006391684990376,-1.010368585586548,2.360718727111816,-9.509914398193359,26.38
4,131,0.005326403304935,-0.049002911895514,0.006391684990376,-1.015156984329224,2.322411060333252,-9.529067993164062,26.41
4,132,0.006391684990376,-0.049002911895514,0.006391684990376,-1.029522418975830,2.336776494979858,-9.548221588134765,26.39
4,133,0.005326403304935,-0.051133479923010,0.005326403304935,-1.024734020233154,2.331988096237183,-9.562587738037109,26.40
4,134,0.005326403304935,-0.051133479923010,0.005326403304935,-1.024734020233154,2.331988096237183,-9.562587738037109,26.40
4,135,0.007456964813173,-0.050068192183971,0.005326403304935,-1.053464770317078,2.355930328369141,-9.519491195678710,26.39
4,136,0.007456964813173,-0.049002911895514,0.005326403304935,-1.005580067634582,2.327199459075928,-9.576952934265136,26.39
4,137,0.007456964813173,-0.050068192183971,0.005326403304935,-0.986426174640656,2.365507364273071,-9.620049476623535,26.40
4,138,0.006391684990376,-0.049002911895514,0.006391684990376,-0.991214632987976,2.308045625686645,-9.533856391906738,26.40
4,139,0.007456964813173,-0.050068192183971,0.006391684990376,-1.034310936927795,2.370296001434326,-9.562587738037109,26.42
4,140,0.007456964813173,-0.050068192183971,0.006391684990376,-1.000791549682617,2.312834262847900,-9.586529731750488,26.41
4,141,0.006391684990376,-0.049002911895514,0.006391684990376,-0.976849198341370,2.317622661590576,-9.557799339294433,26.39
4,142,0.007456964813173,-0.049002911895514,0.005326403304935,-0.986426174640656,2.317622661590576,-9.562587738037109,26.39
4,143,0.007456964813173,-0.049002911895514,0.005326403304935,-1.015156984329224,2.312834262847900,-9.543433189392089,26.39
4,144,0.006391684990376,-0.049002911895514,0.006391684990376,-1.024734020233154,2.370296001434326,-9.600895881652832,26.41
4,145,0.006391684990376,-0.050068192183971,0.006391684990376,-1.024734020233154,2.341564893722534,-9.543433189392089,26.40
4,146,0.005326403304935,-0.050068192183971,0.006391684990376,-0.991214632987976,2.355930328369141,-9.557799339294433,26.40
4,147,0.005326403304935,-0.049002911895514,0.006391684990376,-1.039099335670471,2.331988096237183,-9.538644790649414,26.39
4,148,0.007456964813173,-0.049002911895514,0.006391684990376,-1.005580067634582,2.303256988525391,-9.548221588134765,26.39
4,149,0.007456964813173,-0.049002911895514,0.006391684990376,-1.005580067634582,2.303256988525391,-9.548221588134765,26.39
4,150,0.007456964813173,-0.049002911895514,0.006391684990376,-1.024734020233154,2.322411060333252,-9.538644790649414,26.40
4,151,0.005326403304935,-0.049002911895514,0.006391684990376,-1.005580067634582,2.322411060333252,-9.605684280395507,26.40
4,152,0.006391684990376,-0.049002911895514,0.006391684990376,-0.991214632987976,2.331988096237183,-9.648779869079589,26.39
4,153,0.006391684990376,-0.051133479923010,0.006391684990376,-1.043887853622436,2.312834262847900,-9.600895881652832,26.40
4,154,0.006391684990376,-0.050068192183971,0.007456964813173,-1.029522418975830,2.322411060333252,-9.591318130493164,26.40
4,155,0.007456964813173,-0.049002911895514,0.006391684990376,-1.039099335670471,2.370296001434326,-9.643991470336914,26.39
4,156,0.006391684990376,-0.050068192183971,0.006391684990376,-1.005580067634582,2.312834262847900,-9.533856391906738,26.37
4,157,0.005326403304935,-0.049002911895514,0.006391684990376,-1.005580067634582,2.355930328369141,-9.605684280395507,26.41
4,158,0.006391684990376,-0.050068192183971,0.007456964813173,-1.000791549682617,2.351141929626465,-9.591318130493164,26.41
4,159,0.006391684990376,-0.050068192183971,0.006391684990376,-1.005580067634582,2.346353530883789,-9.596106529235839,26.41
4,160,0.007456964813173,-0.049002911895514,0.006391684990376,-0.996003091335297,2.341564893722534,-9.567376136779785,26.41
4,161,0.006391684990376,-0.051133479923010,0.006391684990376,-0.962483763694763,2.331988096237183,-9.605684280395507,26.40
4,162,0.007456964813173,-0.050068192183971,0.005326403304935,-1.010368585586548,2.375084400177002,-9.586529731750488,26.40
4,163,0.007456964813173,-0.050068192183971,0.005326403304935,-1.010368585586548,2.375084400177002,-9.586529731750488,26.40
4,164,0.006391684990376,-0.050068192183971,0.006391684990376,-1.039099335670471,2.355930328369141,-9.576952934265136,26.41
4,165,0.007456964813173,-0.050068192183971,0.006391684990376,-1.029522418975830,2.336776494979858,-9.557799339294433,26.40
4,166,0.007456964813173,-0.050068192183971,0.005326403304935,-1.034310936927795,2.351141929626465,-9.600895881652832,26.39
4,167,0.006391684990376,-0.051133479923010,0.007456964813173,-0.996003091335297,2.346353530883789,-9.529067993164062,26.39
4,168,0.006391684990376,-0.047937631607056,0.007456964813173,-0.991214632987976,2.351141929626465,-9.462029457092285,26.41
4,169,0.006391684990376,-0.049002911895514,0.007456964813173,-0.976849198341370,2.351141929626465,-9.586529731750488,26.39
4,170,0.006391684990376,-0.050068192183971,0.006391684990376,-1.067830204963684,2.355930328369141,-9.529067993164062,26.41
4,171,0.007456964813173,-0.050068192183971,0.006391684990376,-1.005580067634582,2.336776494979858,-9.548221588134765,26.40
4,172,0.006391684990376,-0.049002911895514,0.006391684990376,-1.005580067634582,2.370296001434326,-9.610472679138183,26.40
4,173,0.007456964813173,-0.049002911895514,0.007456964813173,-1.063041806221008,2.360718727111816,-9.572164535522460,26.41
4,174,0.006391684990376,-0.049002911895514,0.006391684990376,-0.986426174640656,2.303256988525391,-9.557799339294433,26.40
4,175,0.006391684990376,-0.050068192183971,0.007456964813173,-0.991214632987976,2.360718727111816,-9.576952934265136,26.41
4,176,0.005326403304935,-0.051133479923010,0.007456964813173,-1.019945502281189,2.284103155136108,-9.505125999450683,26.40
4,177,0.005326403304935,-0.051133479923010,0.007456964813173,-1.019945502281189,2.284103155136108,-9.505125999450683,26.40
4,178,0.007456964813173,-0.049002911895514,0.006391684990376,-1.024734020233154,2.360718727111816,-9.553009986877441,26.40
4,179,0.006391684990376,-0.050068192183971,0.007456964813173,-0.972060739994049,2.279314756393433,-9.615261077880859,26.40
4,180,0.007456964813173,-0.050068192183971,0.006391684990376,-1.053464770317078,2.336776494979858,-9.562587738037109,26.41
4,181,0.006391684990376,-0.050068192183971,0.005326403304935,-1.034310936927795,2.312834262847900,-9.500337600708007,26.41
4,182,0.006391684990376,-0.049002911895514,0.006391684990376,-0.996003091335297,2.341564893722534,-9.605684280395507,26.42
4,183,0.006391684990376,-0.050068192183971,0.006391684990376,-0.981637656688690,2.346353530883789,-9.500337600708007,26.42
4,184,0.006391684990376,-0.049002911895514,0.006391684990376,-0.976849198341370,2.317622661590576,-9.586529731750488,26.41
4,185,0.007456964813173,-0.050068192183971,0.006391684990376,-1.015156984329224,2.360718727111816,-9.581741333007812,26.41
4,186,0.006391684990376,-0.049002911895514,0.006391684990376,-0.962483763694763,2.355930328369141,-9.586529731750488,26.41
4,187,0.005326403304935,-0.049002911895514,0.007456964813173,-1.000791549682617,2.331988096237183,-9.553009986877441,26.41
4,188,0.007456964813173,-0.049002911895514,0.006391684990376,-1.019945502281189,2.322411060333252,-9.495549201965332,26.42
4,189,0.006391684990376,-0.049002911895514,0.006391684990376,-1.010368585586548,2.327199459075928,-9.610472679138183,26.42
4,190,0.006391684990376,-0.051133479923010,0.006391684990376,-1.043887853622436,2.331988096237183,-9.586529731750488,26.40
4,191,0.006391684990376,-0.051133479923010,0.006391684990376,-1.043887853622436,2.331988096237183,-9.586529731750488,26.40
4,192,0.007456964813173,-0.049002911895514,0.007456964813173,-1.024734020233154,2.341564893722534,-9.615261077880859,26.41
4,193,0.007456964813173,-0.051133479923010,0.006391684990376,-1.019945502281189,2.351141929626465,-9.553009986877441,26.40
4,194,0.006391684990376,-0.049002911895514,0.006391684990376,-0.996003091335297,2.336776494979858,-9.567376136779785,26.41
4,195,0.007456964813173,-0.050068192183971,0.006391684990376,-0.991214632987976,2.308045625686645,-9.495549201965332,26.42
4,196,0.006391684990376,-0.050068192183971,0.006391684990376,-0.952906787395477,2.303256988525391,-9.500337600708007,26.41
4,197,0.008522246032953,-0.049002911895514,0.006391684990376,-1.000791549682617,2.346353530883789,-9.620049476623535,26.39
4,198,0.005326403304935,-0.050068192183971,0.006391684990376,-1.010368585586548,2.331988096237183,-9.567376136779785,26.40
4,199,0.005326403304935,-0.049002911895514,0.006391684990376,-0.967272222042084,2.317622661590576,-9.581741333007812,26.42
4,200,0.006391684990376,-0.049002911895514,0.006391684990376,-1.043887853622436,2.331988096237183,-9.562587738037109,26.40
4,201,0.006391684990376,-0.049002911895514,0.007456964813173,-1.010368585586548,2.336776494979858,-9.548221588134765,26.42
4,202,0.007456964813173,-0.047937631607056,0.006391684990376,-0.991214632987976,2.365507364273071,-9.596106529235839,26.41
4,203,0.007456964813173,-0.050068192183971,0.006391684990376,-0.996003091335297,2.351141929626465,-9.600895881652832,26.42
4,204,0.006391684990376,-0.051133479923010,0.006391684990376,-1.015156984329224,2.351141929626465,-9.557799339294433,26.42
4,205,0.005326403304935,-0.049002911895514,0.007456964813173,-1.034310936927795,2.351141929626465,-9.576952934265136,26.39
4,206,0.005326403304935,-0.049002911895514,0.007456964813173,-1.034310936927795,2.351141929626465,-9.576952934265136,26.39
4,207,0.006391684990376,-0.050068192183971,0.007456964813173,-0.986426174640656,2.375084400177002,-9.572164535522460,26.42
4,208,0.007456964813173,-0.049002911895514,0.006391684990376,-1.029522418975830,2.303256988525391,-9.557799339294433,26.41
4,209,0.008522246032953,-0.049002911895514,0.006391684990376,-0.986426174640656,2.331988096237183,-9.576952934265136,26.41
4,210,0.007456964813173,-0.051133479923010,0.005326403304935,-0.996003091335297,2.360718727111816,-9.572164535522460,26.40
4,211,0.007456964813173,-0.049002911895514,0.007456964813173,-1.010368585586548,2.312834262847900,-9.610472679138183,26.40
4,212,0.006391684990376,-0.049002911895514,0.006391684990376,-1.000791549682617,2.336776494979858,-9.557799339294433,26.43
4,213,0.007456964813173,-0.049002911895514,0.005326403304935,-1.029522418975830,2.322411060333252,-9.591318130493164,26.39
4,214,0.006391684990376,-0.050068192183971,0.006391684990376,-1.010368585586548,2.360718727111816,-9.485972404479980,26.40
4,215,0.007456964813173,-0.049002911895514,0.006391684990376,-0.996003091335297,2.351141929626465,-9.591318130493164,26.41
4,216,0.005326403304935,-0.050068192183971,0.006391684990376,-1.000791549682617,2.312834262847900,-9.529067993164062,26.41
4,217,0.006391684990376,-0.050068192183971,0.006391684990376,-0.991214632987976,2.327199459075928,-9.495549201965332,26.41
4,218,0.007456964813173,-0.050068192183971,0.006391684990376,-1.015156984329224,2.331988096237183,-9.620049476623535,26.41
4,219,0.007456964813173,-0.050068192183971,0.006391684990376,-1.010368585586548,2.312834262847900,-9.548221588134765,26.42
4,220,0.007456964813173,-0.050068192183971,0.006391684990376,-1.010368585586548,2.312834262847900,-9.548221588134765,26.42
4,221,0.007456964813173,-0.050068192183971,0.007456964813173,-1.024734020233154,2.351141929626465,-9.576952934265136,26.40
4,222,0.007456964813173,-0.047937631607056,0.005326403304935,-1.010368585586548,2.312834262847900,-9.562587738037109,26.43
4,223,0.006391684990376,-0.049002911895514,0.006391684990376,-1.024734020233154,2.298468589782715,-9.543433189392089,26.43
4,224,0.006391684990376,-0.050068192183971,0.006391684990376,-0.981637656688690,2.341564893722534,-9.490760803222656,26.41
4,225,0.006391684990376,-0.049002911895514,0.006391684990376,-1.024734020233154,2.312834262847900,-9.572164535522460,26.41
4,226,0.007456964813173,-0.049002911895514,0.007456964813173,-0.976849198341370,2.365507364273071,-9.562587738037109,26.41
4,227,0.006391684990376,-0.050068192183971,0.006391684990376,-1.029522418975830,2.346353530883789,-9.543433189392089,26.40
4,228,0.006391684990376,-0.049002911895514,0.006391684990376,-1.019945502281189,2.322411060333252,-9.543433189392089,26.42
4,229,0.006391684990376,-0.050068192183971,0.006391684990376,-1.043887853622436,2.341564893722534,-9.576952934265136,26.42
4,230,0.005326403304935,-0.049002911895514,0.007456964813173,-0.996003091335297,2.365507364273071,-9.596106529235839,26.43
4,231,0.006391684990376,-0.050068192183971,0.006391684990376,-1.015156984329224,2.341564893722534,-9.553009986877441,26.40
4,232,0.006391684990376,-0.050068192183971,0.006391684990376,-1.000791549682617,2.336776494979858,-9.600895881652832,26.42
4,233,0.006391684990376,-0.049002911895514,0.007456964813173,-1.000791549682617,2.355930328369141,-9.529067993164062,26.41
4,234,0.006391684990376,-0.049002911895514,0.007456964813173,-1.000791549682617,2.355930328369141,-9.529067993164062,26.41
4,235,0.006391684990376,-0.050068192183971,0.007456964813173,-1.029522418975830,2.317622661590576,-9.505125999450683,26.41
4,236,0.006391684990376,-0.050068192183971,0.006391684990376,-1.043887853622436,2.331988096237183,-9.533856391906738,26.41
4,237,0.006391684990376,-0.047937631607056,0.005326403304935,-0.991214632987976,2.346353530883789,-9.548221588134765,26.42
4,238,0.007456964813173,-0.050068192183971,0.006391684990376,-1.000791549682617,2.360718727111816,-9.567376136779785,26.40
4,239,0.006391684990376,-0.049002911895514,0.007456964813173,-1.034310936927795,2.303256988525391,-9.576952934265136,26.40
4,240,0.006391684990376,-0.047937631607056,0.006391684990376,-1.015156984329224,2.322411060333252,-9.581741333007812,26.41
4,241,0.006391684990376,-0.049002911895514,0.006391684990376,-1.000791549682617,2.341564893722534,-9.533856391906738,26.41
4,242,0.006391684990376,-0.047937631607056,0.005326403304935,-0.972060739994049,2.341564893722534,-9.615261077880859,26.42
4,243,0.007456964813173,-0.047937631607056,0.006391684990376,-1.000791549682617,2.375084400177002,-9.543433189392089,26.42
4,244,0.006391684990376,-0.050068192183971,0.006391684990376,-0.976849198341370,2.370296001434326,-9.576952934265136,26.42
4,245,0.007456964813173,-0.049002911895514,0.006391684990376,-1.019945502281189,2.322411060333252,-9.533856391906738,26.42
4,246,0.006391684990376,-0.047937631607056,0.006391684990376,-1.000791549682617,2.370296001434326,-9.581741333007812,26.42
4,247,0.005326403304935,-0.049002911895514,0.006391684990376,-0.986426174640656,2.360718727111816,-9.548221588134765,26.40
4,248,0.005326403304935,-0.049002911895514,0.006391684990376,-0.986426174640656,2.360718727111816,-9.548221588134765,26.40
4,249,0.006391684990376,-0.050068192183971,0.006391684990376,-1.005580067634582,2.327199459075928,-9.524279594421386,26.41
4,250,0.004261123016477,-0.050068192183971,0.006391684990376,-0.981637656688690,2.351141929626465,-9.533856391906738,26.40
4,251,0.007456964813173,-0.050068192183971,0.006391684990376,-1.015156984329224,2.312834262847900,-9.543433189392089,26.41
4,252,0.006391684990376,-0.047937631607056,0.007456964813173,-1.000791549682617,2.365507364273071,-9.596106529235839,26.42
4,253,0.006391684990376,-0.049002911895514,0.006391684990376,-1.029522418975830,2.327199459075928,-9.615261077880859,26.41
4,254,0.008522246032953,-0.049002911895514,0.006391684990376,-0.986426174640656,2.293680191040039,-9.553009986877441,26.42
4,255,0.006391684990376,-0.047937631607056,0.006391684990376,-0.991214632987976,2.360718727111816,-9.586529731750488,26.42
4,256,0.006391684990376,-0.050068192183971,0.006391684990376,-1.024734020233154,2.341564893722534,-9.562587738037109,26.42
4,257,0.006391684990376,-0.047937631607056,0.007456964813173,-1.024734020233154,2.331988096237183,-9.543433189392089,26.42
4,258,0.006391684990376,-0.049002911895514,0.007456964813173,-1.019945502281189,2.370296001434326,-9.600895881652832,26.42
4,259,0.007456964813173,-0.049002911895514,0.007456964813173,-0.967272222042084,2.346353530883789,-9.538644790649414,26.42
4,260,0.006391684990376,-0.049002911895514,0.006391684990376,-0.986426174640656,2.317622661590576,-9.543433189392089,26.42
4,261,0.006391684990376,-0.049002911895514,0.007456964813173,-1.000791549682617,2.365507364273071,-9.533856391906738,26.41
4,262,0.006391684990376,-0.049002911895514,0.007456964813173,-1.000791549682617,2.365507364273071,-9.533856391906738,26.41
4,263,0.006391684990376,-0.050068192183971,0.007456964813173,-1.010368585586548,2.317622661590576,-9.576952934265136,26.42
4,264,0.006391684990376,-0.049002911895514,0.006391684990376,-1.039099335670471,2.370296001434326,-9.605684280395507,26.42
4,265,0.006391684990376,-0.049002911895514,0.006391684990376,-1.015156984329224,2.293680191040039,-9.572164535522460,26.43
4,266,0.006391684990376,-0.050068192183971,0.007456964813173,-1.005580067634582,2.375084400177002,-9.553009986877441,26.42
4,267,0.006391684990376,-0.050068192183971,0.006391684990376,-1.015156984329224,2.327199459075928,-9.543433189392089,26.43
4,268,0.005326403304935,-0.050068192183971,0.005326403304935,-0.986426174640656,2.351141929626465,-9.519491195678710,26.42
4,269,0.007456964813173,-0.049002911895514,0.007456964813173,-1.019945502281189,2.351141929626465,-9.524279594421386,26.40
4,270,0.006391684990376,-0.050068192183971,0.006391684990376,-0.996003091335297,2.341564893722534,-9.615261077880859,26.39
4,271,0.007456964813173,-0.049002911895514,0.006391684990376,-1.048676371574402,2.351141929626465,-9.529067993164062,26.43
4,272,0.007456964813173,-0.049002911895514,0.006391684990376,-1.019945502281189,2.336776494979858,-9.620049476623535,26.42
4,273,0.006391684990376,-0.049002911895514,0.007456964813173,-1.000791549682617,2.365507364273071,-9.576952934265136,26.42
4,274,0.006391684990376,-0.050068192183971,0.006391684990376,-1.039099335670471,2.303256988525391,-9.543433189392089,26.45
4,275,0.006391684990376,-0.050068192183971,0.007456964813173,-0.981637656688690,2.327199459075928,-9.572164535522460,26.40
4,276,0.006391684990376,-0.050068192183971,0.007456964813173,-0.981637656688690,2.327199459075928,-9.572164535522460,26.40
4,277,0.006391684990376,-0.050068192183971,0.006391684990376,-0.986426174640656,2.336776494979858,-9.562587738037109,26.42
4,278,0.006391684990376,-0.047937631607056,0.006391684990376,-0.996003091335297,2.379872798919678,-9.576952934265136,26.42
4,279,0.006391684990376,-0.050068192183971,0.006391684990376,-0.991214632987976,2.327199459075928,-9.466817855834960,26.42
4,280,0.007456964813173,-0.047937631607056,0.005326403304935,-1.015156984329224,2.355930328369141,-9.553009986877441,26.40
4,281,0.006391684990376,-0.050068192183971,0.007456964813173,-0.991214632987976,2.365507364273071,-9.567376136779785,26.39
4,282,0.005326403304935,-0.049002911895514,0.005326403304935,-1.010368585586548,2.355930328369141,-9.476394653320312,26.41
4,283,0.006391684990376,-0.049002911895514,0.007456964813173,-0.991214632987976,2.375084400177002,-9.600895881652832,26.43
4,284,0.008522246032953,-0.050068192183971,0.006391684990376,-1.029522418975830,2.355930328369141,-9.553009986877441,26.45
4,285,0.006391684990376,-0.050068192183971,0.005326403304935,-0.976849198341370,2.298468589782715,-9.562587738037109,26.40
4,286,0.007456964813173,-0.049002911895514,0.007456964813173,-1.010368585586548,2.379872798919678,-9.576952934265136,26.42
4,287,0.005326403304935,-0.050068192183971,0.006391684990376,-0.972060739994049,2.308045625686645,-9.533856391906738,26.42
4,288,0.006391684990376,-0.050068192183971,0.006391684990376,-0.996003091335297,2.308045625686645,-9.557799339294433,26.41
4,289,0.006391684990376,-0.047937631607056,0.007456964813173,-0.981637656688690,2.355930328369141,-9.562587738037109,26.43
4,290,0.006391684990376,-0.047937631607056,0.007456964813173,-0.981637656688690,2.355930328369141,-9.562587738037109,26.43
4,291,0.006391684990376,-0.049002911895514,0.006391684990376,-0.996003091335297,2.351141929626465,-9.586529731750488,26.44
4,292,0.007456964813173,-0.049002911895514,0.005326403304935,-1.015156984329224,2.312834262847900,-9.576952934265136,26.42
4,293,0.005326403304935,-0.049002911895514,0.006391684990376,-0.996003091335297,2.312834262847900,-9.533856391906738,26.43
4,294,0.006391684990376,-0.050068192183971,0.006391684990376,-1.005580067634582,2.365507364273071,-9.553009986877441,26.41
4,295,0.007456964813173,-0.047937631607056,0.006391684990376,-0.976849198341370,2.327199459075928,-9.548221588134765,26.41
4,296,0.007456964813173,-0.050068192183971,0.005326403304935,-1.048676371574402,2.351141929626465,-9.567376136779785,26.42
4,297,0.007456964813173,-0.049002911895514,0.007456964813173,-1.029522418975830,2.341564893722534,-9.505125999450683,26.42
4,298,0.006391684990376,-0.047937631607056,0.006391684990376,-0.981637656688690,2.355930328369141,-9.615261077880859,26.42
4,299,0.006391684990376,-0.050068192183971,0.006391684990376,-1.019945502281189,2.370296001434326,-9.533856391906738,26.43
4,300,0.006391684990376,-0.049002911895514,0.006391684990376,-1.010368585586548,2.341564893722534,-9.634414672851562,26.44
4,301,0.006391684990376,-0.050068192183971,0.006391684990376,-1.015156984329224,2.327199459075928,-9.557799339294433,26.43
4,302,0.005326403304935,-0.049002911895514,0.007456964813173,-0.996003091335297,2.355930328369141,-9.586529731750488,26.43
4,303,0.007456964813173,-0.050068192183971,0.005326403304935,-1.043887853622436,2.327199459075928,-9.557799339294433,26.42
4,304,0.006391684990376,-0.049002911895514,0.007456964813173,-0.991214632987976,2.351141929626465,-9.524279594421386,26.42
4,305,0.006391684990376,-0.049002911895514,0.007456964813173,-0.991214632987976,2.351141929626465,-9.524279594421386,26.42
4,306,0.007456964813173,-0.050068192183971,0.006391684990376,-1.005580067634582,2.346353530883789,-9.562587738037109,26.42
4,307,0.007456964813173,-0.050068192183971,0.007456964813173,-0.976849198341370,2.365507364273071,-9.581741333007812,26.42
4,308,0.006391684990376,-0.049002911895514,0.005326403304935,-0.957695305347443,2.284103155136108,-9.562587738037109,26.43
4,309,0.007456964813173,-0.049002911895514,0.007456964813173,-0.996003091335297,2.360718727111816,-9.562587738037109,26.43
4,310,0.004261123016477,-0.047937631607056,0.006391684990376,-1.024734020233154,2.331988096237183,-9.529067993164062,26.43
4,311,0.006391684990376,-0.049002911895514,0.005326403304935,-0.952906787395477,2.336776494979858,-9.596106529235839,26.42
4,312,0.007456964813173,-0.049002911895514,0.006391684990376,-1.000791549682617,2.322411060333252,-9.543433189392089,26.42
4,313,0.007456964813173,-0.049002911895514,0.007456964813173,-0.996003091335297,2.317622661590576,-9.557799339294433,26.44
4,314,0.007456964813173,-0.049002911895514,0.005326403304935,-1.000791549682617,2.298468589782715,-9.591318130493164,26.44
4,315,0.007456964813173,-0.049002911895514,0.007456964813173,-1.005580067634582,2.312834262847900,-9.576952934265136,26.43
4,316,0.006391684990376,-0.049002911895514,0.006391684990376,-0.991214632987976,2.360718727111816,-9.562587738037109,26.42
4,317,0.008522246032953,-0.049002911895514,0.006391684990376,-0.986426174640656,2.336776494979858,-9.567376136779785,26.42
4,318,0.006391684990376,-0.050068192183971,0.006391684990376,-0.996003091335297,2.355930328369141,-9.581741333007812,26.45
4,319,0.006391684990376,-0.050068192183971,0.006391684990376,-0.996003091335297,2.355930328369141,-9.581741333007812,26.45
4,320,0.007456964813173,-0.047937631607056,0.006391684990376,-1.010368585586548,2.360718727111816,-9.605684280395507,26.45
4,321,0.007456964813173,-0.051133479923010,0.006391684990376,-1.019945502281189,2.346353530883789,-9.557799339294433,26.42
4,322,0.006391684990376,-0.049002911895514,0.007456964813173,-0.981637656688690,2.351141929626465,-9.557799339294433,26.43
4,323,0.004261123016477,-0.049002911895514,0.005326403304935,-0.991214632987976,2.322411060333252,-9.548221588134765,26.42
4,324,0.005326403304935,-0.051133479923010,0.006391684990376,-0.981637656688690,2.336776494979858,-9.543433189392089,26.42
4,325,0.007456964813173,-0.049002911895514,0.006391684990376,-0.972060739994049,2.312834262847900,-9.553009986877441,26.43
4,326,0.007456964813173,-0.049002911895514,0.006391684990376,-1.005580067634582,2.336776494979858,-9.576952934265136,26.42
4,327,0.007456964813173,-0.051133479923010,0.007456964813173,-1.019945502281189,2.341564893722534,-9.581741333007812,26.44
4,328,0.006391684990376,-0.049002911895514,0.007456964813173,-0.996003091335297,2.327199459075928,-9.562587738037109,26.43
4,329,0.005326403304935,-0.050068192183971,0.006391684990376,-1.048676371574402,2.360718727111816,-9.576952934265136,26.43
4,330,0.006391684990376,-0.049002911895514,0.006391684990376,-0.996003091335297,2.365507364273071,-9.581741333007812,26.43
4,331,0.006391684990376,-0.049002911895514,0.005326403304935,-1.015156984329224,2.308045625686645,-9.557799339294433,26.42
4,332,0.005326403304935,-0.047937631607056,0.006391684990376,-1.015156984329224,2.365507364273071,-9.500337600708007,26.43
4,333,0.005326403304935,-0.047937631607056,0.006391684990376,-1.015156984329224,2.365507364273071,-9.500337600708007,26.43
4,334,0.006391684990376,-0.050068192183971,0.006391684990376,-1.005580067634582,2.365507364273071,-9.567376136779785,26.42
4,335,0.007456964813173,-0.047937631607056,0.006391684990376,-0.972060739994049,2.327199459075928,-9.548221588134765,26.42
4,336,0.006391684990376,-0.049002911895514,0.006391684990376,-1.000791549682617,2.346353530883789,-9.562587738037109,26.40
4,337,0.007456964813173,-0.049002911895514,0.006391684990376,-1.015156984329224,2.322411060333252,-9.543433189392089,26.43
4,338,0.006391684990376,-0.049002911895514,0.006391684990376,-0.986426174640656,2.336776494979858,-9.581741333007812,26.41
4,339,0.005326403304935,-0.050068192183971,0.006391684990376,-1.019945502281189,2.331988096237183,-9.605684280395507,26.42
4,340,0.005326403304935,-0.047937631607056,0.005326403304935,-1.029522418975830,2.327199459075928,-9.557799339294433,26.44
4,341,0.005326403304935,-0.049002911895514,0.006391684990376,-1.015156984329224,2.322411060333252,-9.596106529235839,26.43
4,342,0.007456964813173,-0.049002911895514,0.005326403304935,-1.005580067634582,2.322411060333252,-9.543433189392089,26.43
4,343,0.006391684990376,-0.047937631607056,0.006391684990376,-1.010368585586548,2.365507364273071,-9.548221588134765,26.42
4,344,0.007456964813173,-0.051133479923010,0.006391684990376,-1.019945502281189,2.355930328369141,-9.605684280395507,26.42
4,345,0.007456964813173,-0.047937631607056,0.006391684990376,-1.015156984329224,2.308045625686645,-9.500337600708007,26.44
4,346,0.006391684990376,-0.047937631607056,0.006391684990376,-0.996003091335297,2.384661197662353,-9.591318130493164,26.44
4,347,0.006391684990376,-0.047937631607056,0.006391684990376,-0.996003091335297,2.384661197662353,-9.591318130493164,26.44
4,348,0.006391684990376,-0.050068192183971,0.007456964813173,-1.010368585586548,2.346353530883789,-9.490760803222656,26.42
4,349,0.007456964813173,-0.050068192183971,0.006391684990376,-1.015156984329224,2.355930328369141,-9.524279594421386,26.42
4,350,0.007456964813173,-0.050068192183971,0.006391684990376,-1.029522418975830,2.336776494979858,-9.572164535522460,26.41
4,351,0.007456964813173,-0.047937631607056,0.006391684990376,-1.019945502281189,2.327199459075928,-9.576952934265136,26.43
4,352,0.006391684990376,-0.049002911895514,0.006391684990376,-1.019945502281189,2.331988096237183,-9.543433189392089,26.43
4,353,0.006391684990376,-0.050068192183971,0.007456964813173,-1.034310936927795,2.341564893722534,-9.576952934265136,26.43
4,354,0.007456964813173,-0.049002911895514,0.005326403304935,-1.039099335670471,2.355930328369141,-9.533856391906738,26.42
4,355,0.006391684990376,-0.050068192183971,0.007456964813173,-1.000791549682617,2.346353530883789,-9.576952934265136,26.42
4,356,0.006391684990376,-0.049002911895514,0.005326403304935,-0.986426174640656,2.336776494979858,-9.600895881652832,26.43
4,357,0.006391684990376,-0.050068192183971,0.006391684990376,-0.996003091335297,2.322411060333252,-9.605684280395507,26.45
4,358,0.007456964813173,-0.049002911895514,0.006391684990376,-1.034310936927795,2.312834262847900,-9.557799339294433,26.45
4,359,0.005326403304935,-0.049002911895514,0.006391684990376,-1.039099335670471,2.322411060333252,-9.572164535522460,26.42
4,360,0.006391684990376,-0.049002911895514,0.007456964813173,-1.019945502281189,2.322411060333252,-9.543433189392089,26.43
4,361,0.006391684990376,-0.049002911895514,0.007456964813173,-1.019945502281189,2.322411060333252,-9.543433189392089,26.43
4,362,0.007456964813173,-0.049002911895514,0.005326403304935,-1.010368585586548,2.355930328369141,-9.567376136779785,26.43
4,363,0.007456964813173,-0.049002911895514,0.007456964813173,-1.005580067634582,2.308045625686645,-9.567376136779785,26.46
4,364,0.007456964813173,-0.049002911895514,0.006391684990376,-1.010368585586548,2.312834262847900,-9.543433189392089,26.42
4,365,0.006391684990376,-0.049002911895514,0.007456964813173,-1.000791549682617,2.317622661590576,-9.533856391906738,26.45
4,366,0.006391684990376,-0.050068192183971,0.005326403304935,-0.976849198341370,2.351141929626465,-9.553009986877441,26.44
4,367,0.008522246032953,-0.049002911895514,0.006391684990376,-1.043887853622436,2.336776494979858,-9.562587738037109,26.42
4,368,0.006391684990376,-0.050068192183971,0.006391684990376,-1.015156984329224,2.341564893722534,-9.519491195678710,26.43
4,369,0.007456964813173,-0.049002911895514,0.007456964813173,-1.019945502281189,2.384661197662353,-9.624837875366210,26.43
4,370,0.006391684990376,-0.050068192183971,0.007456964813173,-1.034310936927795,2.341564893722534,-9.519491195678710,26.43
4,371,0.006391684990376,-0.047937631607056,0.006391684990376,-1.015156984329224,2.303256988525391,-9.572164535522460,26.42
4,372,0.007456964813173,-0.049002911895514,0.007456964813173,-0.986426174640656,2.394238233566284,-9.557799339294433,26.43
4,373,0.006391684990376,-0.049002911895514,0.006391684990376,-1.010368585586548,2.331988096237183,-9.548221588134765,26.45
4,374,0.006391684990376,-0.047937631607056,0.006391684990376,-0.996003091335297,2.331988096237183,-9.576952934265136,26.43
4,375,0.006391684990376,-0.047937631607056,0.006391684990376,-0.996003091335297,2.331988096237183,-9.576952934265136,26.43
4,376,0.007456964813173,-0.050068192183971,0.007456964813173,-1.024734020233154,2.298468589782715,-9.543433189392089,26.43
4,377,0.006391684990376,-0.049002911895514,0.005326403304935,-1.063041806221008,2.341564893722534,-9.572164535522460,26.44
4,378,0.007456964813173,-0.050068192183971,0.006391684990376,-1.005580067634582,2.351141929626465,-9.553009986877441,26.46
4,379,0.006391684990376,-0.049002911895514,0.006391684990376,-1.010368585586548,2.370296001434326,-9.586529731750488,26.44
4,380,0.007456964813173,-0.050068192183971,0.005326403304935,-1.010368585586548,2.327199459075928,-9.624837875366210,26.43
4,381,0.006391684990376,-0.050068192183971,0.006391684990376,-0.996003091335297,2.308045625686645,-9.543433189392089,26.43
4,382,0.006391684990376,-0.050068192183971,0.006391684990376,-1.000791549682617,2.341564893722534,-9.567376136779785,26.44
4,383,0.007456964813173,-0.051133479923010,0.006391684990376,-0.976849198341370,2.312834262847900,-9.548221588134765,26.42
4,384,0.006391684990376,-0.049002911895514,0.007456964813173,-1.000791549682617,2.379872798919678,-9.572164535522460,26.44
4,385,0.005326403304935,-0.049002911895514,0.006391684990376,-1.010368585586548,2.327199459075928,-9.543433189392089,26.45
4,386,0.006391684990376,-0.049002911895514,0.006391684990376,-0.986426174640656,2.322411060333252,-9.615261077880859,26.44
4,387,0.006391684990376,-0.049002911895514,0.006391684990376,-0.991214632987976,2.331988096237183,-9.543433189392089,26.42
4,388,0.007456964813173,-0.050068192183971,0.005326403304935,-1.010368585586548,2.317622661590576,-9.591318130493164,26.45
4,389,0.007456964813173,-0.049002911895514,0.006391684990376,-0.957695305347443,2.341564893722534,-9.600895881652832,26.44
4,390,0.007456964813173,-0.049002911895514,0.006391684990376,-0.957695305347443,2.341564893722534,-9.600895881652832,26.44
4,391,0.005326403304935,-0.050068192183971,0.007456964813173,-0.996003091335297,2.346353530883789,-9.562587738037109,26.44
4,392,0.006391684990376,-0.049002911895514,0.007456964813173,-0.996003091335297,2.384661197662353,-9.615261077880859,26.44
4,393,0.006391684990376,-0.049002911895514,0.005326403304935,-1.019945502281189,2.284103155136108,-9.505125999450683,26.42
4,394,0.007456964813173,-0.049002911895514,0.006391684990376,-1.024734020233154,2.336776494979858,-9.509914398193359,26.45
4,395,0.006391684990376,-0.049002911895514,0.005326403304935,-0.986426174640656,2.341564893722534,-9.600895881652832,26.43
4,396,0.006391684990376,-0.050068192183971,0.006391684990376,-1.029522418975830,2.317622661590576,-9.529067993164062,26.43
4,397,0.006391684990376,-0.049002911895514,0.006391684990376,-1.029522418975830,2.351141929626465,-9.538644790649414,26.46
4,398,0.007456964813173,-0.050068192183971,0.005326403304935,-1.019945502281189,2.284103155136108,-9.553009986877441,26.45
4,399,0.007456964813173,-0.049002911895514,0.006391684990376,-0.991214632987976,2.327199459075928,-9.543433189392089,26.43
4,400,0.006391684990376,-0.047937631607056,0.006391684990376,-1.039099335670471,2.375084400177002,-9.495549201965332,26.43
4,401,0.006391684990376,-0.049002911895514,0.006391684990376,-0.981637656688690,2.360718727111816,-9.553009986877441,26.42
4,402,0.006391684990376,-0.051133479923010,0.006391684990376,-1.000791549682617,2.346353530883789,-9.485972404479980,26.45
4,403,0.006391684990376,-0.047937631607056,0.007456964813173,-1.019945502281189,2.312834262847900,-9.548221588134765,26.45
4,404,0.006391684990376,-0.047937631607056,0.007456964813173,-1.019945502281189,2.312834262847900,-9.548221588134765,26.45
4,405,0.006391684990376,-0.049002911895514,0.006391684990376,-1.010368585586548,2.365507364273071,-9.610472679138183,26.45
4,406,0.006391684990376,-0.049002911895514,0.007456964813173,-1.015156984329224,2.351141929626465,-9.524279594421386,26.45
4,407,0.006391684990376,-0.050068192183971,0.006391684990376,-0.991214632987976,2.355930328369141,-9.586529731750488,26.44
4,408,0.006391684990376,-0.049002911895514,0.007456964813173,-0.991214632987976,2.331988096237183,-9.495549201965332,26.44
4,409,0.005326403304935,-0.049002911895514,0.006391684990376,-1.000791549682617,2.341564893722534,-9.586529731750488,26.43
4,410,0.007456964813173,-0.050068192183971,0.006391684990376,-1.015156984329224,2.336776494979858,-9.567376136779785,26.44
4,411,0.006391684990376,-0.049002911895514,0.006391684990376,-1.019945502281189,2.269737958908081,-9.624837875366210,26.42
4,412,0.006391684990376,-0.049002911895514,0.005326403304935,-0.996003091335297,2.331988096237183,-9.529067993164062,26.44
4,413,0.007456964813173,-0.050068192183971,0.007456964813173,-1.000791549682617,2.365507364273071,-9.553009986877441,26.45
4,414,0.007456964813173,-0.049002911895514,0.005326403304935,-1.029522418975830,2.331988096237183,-9.639203071594238,26.45
4,415,0.007456964813173,-0.050068192183971,0.006391684990376,-1.019945502281189,2.331988096237183,-9.519491195678710,26.44
4,416,0.006391684990376,-0.050068192183971,0.006391684990376,-1.039099335670471,2.327199459075928,-9.624837875366210,26.45
4,417,0.006391684990376,-0.050068192183971,0.006391684990376,-1.024734020233154,2.331988096237183,-9.634414672851562,26.45
4,418,0.006391684990376,-0.050068192183971,0.006391684990376,-1.024734020233154,2.331988096237183,-9.634414672851562,26.45
4,419,0.008522246032953,-0.050068192183971,0.005326403304935,-1.010368585586548,2.351141929626465,-9.538644790649414,26.45
4,420,0.007456964813173,-0.050068192183971,0.006391684990376,-1.019945502281189,2.312834262847900,-9.629626274108886,26.44
4,421,0.006391684990376,-0.049002911895514,0.006391684990376,-0.948118329048157,2.336776494979858,-9.529067993164062,26.43
4,422,0.006391684990376,-0.050068192183971,0.006391684990376,-0.996003091335297,2.394238233566284,-9.596106529235839,26.42
4,423,0.007456964813173,-0.050068192183971,0.006391684990376,-0.991214632987976,2.322411060333252,-9.524279594421386,26.45
4,424,0.006391684990376,-0.047937631607056,0.005326403304935,-0.976849198341370,2.351141929626465,-9.538644790649414,26.44
4,425,0.007456964813173,-0.051133479923010,0.006391684990376,-1.029522418975830,2.331988096237183,-9.514702796936035,26.45
4,426,0.007456964813173,-0.049002911895514,0.006391684990376,-0.967272222042084,2.346353530883789,-9.557799339294433,26.44
4,427,0.006391684990376,-0.049002911895514,0.007456964813173,-0.986426174640656,2.370296001434326,-9.586529731750488,26.42
4,428,0.006391684990376,-0.049002911895514,0.007456964813173,-0.996003091335297,2.327199459075928,-9.514702796936035,26.45
4,429,0.006391684990376,-0.049002911895514,0.006391684990376,-0.981637656688690,2.317622661590576,-9.605684280395507,26.45
4,430,0.005326403304935,-0.050068192183971,0.006391684990376,-0.981637656688690,2.346353530883789,-9.586529731750488,26.45
4,431,0.006391684990376,-0.049002911895514,0.005326403304935,-1.010368585586548,2.331988096237183,-9.519491195678710,26.46
4,432,0.006391684990376,-0.049002911895514,0.005326403304935,-1.010368585586548,2.331988096237183,-9.519491195678710,26.46
4,433,0.006391684990376,-0.049002911895514,0.006391684990376,-0.981637656688690,2.317622661590576,-9.576952934265136,26.45
4,434,0.006391684990376,-0.050068192183971,0.005326403304935,-0.972060739994049,2.317622661590576,-9.548221588134765,26.44
4,435,0.006391684990376,-0.050068192183971,0.006391684990376,-1.010368585586548,2.360718727111816,-9.572164535522460,26.44
4,436,0.006391684990376,-0.049002911895514,0.005326403304935,-0.996003091335297,2.336776494979858,-9.543433189392089,26.44
4,437,0.006391684990376,-0.049002911895514,0.006391684990376,-1.019945502281189,2.312834262847900,-9.596106529235839,26.44
4,438,0.007456964813173,-0.047937631607056,0.006391684990376,-1.000791549682617,2.322411060333252,-9.576952934265136,26.44
4,439,0.005326403304935,-0.049002911895514,0.006391684990376,-0.981637656688690,2.355930328369141,-9.553009986877441,26.43
4,440,0.007456964813173,-0.049002911895514,0.005326403304935,-0.996003091335297,2.308045625686645,-9.586529731750488,26.46
4,441,0.006391684990376,-0.049002911895514,0.006391684990376,-1.005580067634582,2.346353530883789,-9.572164535522460,26.43
4,442,0.006391684990376,-0.050068192183971,0.006391684990376,-1.086984157562256,2.336776494979858,-9.576952934265136,26.45
4,443,0.006391684990376,-0.049002911895514,0.007456964813173,-0.986426174640656,2.355930328369141,-9.533856391906738,26.42
4,444,0.005326403304935,-0.049002911895514,0.006391684990376,-0.996003091335297,2.331988096237183,-9.620049476623535,26.45
4,445,0.006391684990376,-0.050068192183971,0.006391684990376,-1.000791549682617,2.308045625686645,-9.519491195678710,26.45
4,446,0.006391684990376,-0.050068192183971,0.006391684990376,-1.000791549682617,2.308045625686645,-9.519491195678710,26.45
4,447,0.006391684990376,-0.050068192183971,0.006391684990376,-1.000791549682617,2.298468589782715,-9.567376136779785,26.45
4,448,0.006391684990376,-0.050068192183971,0.006391684990376,-1.039099335670471,2.346353530883789,-9.505125999450683,26.46
4,449,0.007456964813173,-0.049002911895514,0.005326403304935,-1.015156984329224,2.322411060333252,-9.586529731750488,26.44
4,450,0.006391684990376,-0.050068192183971,0.006391684990376,-1.024734020233154,2.351141929626465,-9.509914398193359,26.46
4,451,0.006391684990376,-0.050068192183971,0.006391684990376,-1.034310936927795,2.336776494979858,-9.524279594421386,26.45
4,452,0.007456964813173,-0.049002911895514,0.006391684990376,-1.019945502281189,2.322411060333252,-9.643991470336914,26.44
4,453,0.006391684990376,-0.049002911895514,0.005326403304935,-1.019945502281189,2.336776494979858,-9.495549201965332,26.45
4,454,0.007456964813173,-0.047937631607056,0.007456964813173,-0.996003091335297,2.331988096237183,-9.586529731750488,26.45
4,455,0.007456964813173,-0.050068192183971,0.006391684990376,-1.015156984329224,2.327199459075928,-9.600895881652832,26.45
4,456,0.006391684990376,-0.049002911895514,0.007456964813173,-1.010368585586548,2.336776494979858,-9.490760803222656,26.43
4,457,0.006391684990376,-0.050068192183971,0.006391684990376,-0.976849198341370,2.346353530883789,-9.624837875366210,26.45
4,458,0.007456964813173,-0.050068192183971,0.006391684990376,-0.981637656688690,2.312834262847900,-9.610472679138183,26.44
4,459,0.005326403304935,-0.049002911895514,0.006391684990376,-1.024734020233154,2.317622661590576,-9.562587738037109,26.42
4,460,0.006391684990376,-0.049002911895514,0.006391684990376,-0.991214632987976,2.331988096237183,-9.553009986877441,26.44
4,461,0.006391684990376,-0.049002911895514,0.006391684990376,-0.991214632987976,2.331988096237183,-9.553009986877441,26.44
4,462,0.006391684990376,-0.049002911895514,0.006391684990376,-0.986426174640656,2.351141929626465,-9.509914398193359,26.46
4,463,0.007456964813173,-0.050068192183971,0.006391684990376,-1.024734020233154,2.355930328369141,-9.605684280395507,26.45
4,464,0.006391684990376,-0.050068192183971,0.006391684990376,-0.996003091335297,2.341564893722534,-9.538644790649414,26.44
4,465,0.006391684990376,-0.049002911895514,0.006391684990376,-1.010368585586548,2.355930328369141,-9.581741333007812,26.46
4,466,0.007456964813173,-0.049002911895514,0.006391684990376,-1.010368585586548,2.293680191040039,-9.524279594421386,26.46
4,467,0.005326403304935,-0.050068192183971,0.006391684990376,-0.981637656688690,2.365507364273071,-9.620049476623535,26.45
4,468,0.007456964813173,-0.050068192183971,0.006391684990376,-1.053464770317078,2.370296001434326,-9.529067993164062,26.46
4,469,0.005326403304935,-0.046872351318598,0.007456964813173,-0.986426174640656,2.351141929626465,-9.605684280395507,26.44
4,470,0.005326403304935,-0.051133479923010,0.006391684990376,-0.976849198341370,2.336776494979858,-9.495549201965332,26.44
4,471,0.006391684990376,-0.049002911895514,0.006391684990376,-0.986426174640656,2.331988096237183,-9.509914398193359,26.44
4,472,0.005326403304935,-0.051133479923010,0.006391684990376,-0.996003091335297,2.351141929626465,-9.553009986877441,26.44
4,473,0.007456964813173,-0.050068192183971,0.006391684990376,-1.024734020233154,2.308045625686645,-9.557799339294433,26.44
4,474,0.006391684990376,-0.047937631607056,0.005326403304935,-1.000791549682617,2.322411060333252,-9.572164535522460,26.46
4,475,0.006391684990376,-0.047937631607056,0.005326403304935,-1.000791549682617,2.322411060333252,-9.572164535522460,26.46
4,476,0.006391684990376,-0.050068192183971,0.006391684990376,-1.063041806221008,2.341564893722534,-9.591318130493164,26.45
4,477,0.006391684990376,-0.050068192183971,0.005326403304935,-0.976849198341370,2.274526357650757,-9.514702796936035,26.45
4,478,0.007456964813173,-0.049002911895514,0.005326403304935,-0.981637656688690,2.346353530883789,-9.591318130493164,26.44
4,479,0.005326403304935,-0.051133479923010,0.006391684990376,-0.986426174640656,2.336776494979858,-9.524279594421386,26.46
4,480,0.006391684990376,-0.049002911895514,0.006391684990376,-1.048676371574402,2.336776494979858,-9.543433189392089,26.44
4,481,0.007456964813173,-0.049002911895514,0.006391684990376,-1.034310936927795,2.322411060333252,-9.553009986877441,26.46
4,482,0.006391684990376,-0.047937631607056,0.006391684990376,-0.991214632987976,2.346353530883789,-9.562587738037109,26.45
4,483,0.006391684990376,-0.050068192183971,0.004261123016477,-0.986426174640656,2.322411060333252,-9.572164535522460,26.45
4,484,0.005326403304935,-0.049002911895514,0.006391684990376,-0.986426174640656,2.331988096237183,-9.538644790649414,26.43
4,485,0.006391684990376,-0.050068192183971,0.006391684990376,-1.015156984329224,2.360718727111816,-9.591318130493164,26.47
4,486,0.007456964813173,-0.050068192183971,0.006391684990376,-1.010368585586548,2.303256988525391,-9.548221588134765,26.45
4,487,0.006391684990376,-0.047937631607056,0.006391684990376,-0.976849198341370,2.355930328369141,-9.576952934265136,26.45
4,488,0.007456964813173,-0.049002911895514,0.007456964813173,-1.058253288269043,2.298468589782715,-9.529067993164062,26.44
4,489,0.007456964813173,-0.049002911895514,0.007456964813173,-1.058253288269043,2.298468589782715,-9.529067993164062,26.44
4,490,0.007456964813173,-0.049002911895514,0.006391684990376,-0.986426174640656,2.336776494979858,-9.581741333007812,26.44
4,491,0.007456964813173,-0.050068192183971,0.007456964813173,-1.019945502281189,2.322411060333252,-9.576952934265136,26.46
4,492,0.006391684990376,-0.049002911895514,0.006391684990376,-1.005580067634582,2.346353530883789,-9.591318130493164,26.47
4,493,0.006391684990376,-0.050068192183971,0.006391684990376,-0.986426174640656,2.341564893722534,-9.624837875366210,26.45
4,494,0.006391684990376,-0.050068192183971,0.006391684990376,-1.048676371574402,2.317622661590576,-9.553009986877441,26.46
4,495,0.005326403304935,-0.049002911895514,0.006391684990376,-1.005580067634582,2.317622661590576,-9.533856391906738,26.43
4,496,0.006391684990376,-0.050068192183971,0.007456964813173,-1.024734020233154,2.312834262847900,-9.543433189392089,26.44
4,497,0.006391684990376,-0.049002911895514,0.007456964813173,-0.957695305347443,2.317622661590576,-9.557799339294433,26.46
4,498,0.006391684990376,-0.047937631607056,0.006391684990376,-0.996003091335297,2.322411060333252,-9.605684280395507,26.46
4,499,0.006391684990376,-0.050068192183971,0.005326403304935,-1.029522418975830,2.336776494979858,-9.543433189392089,26.45
4,500,0.005326403304935,-0.047937631607056,0.006391684990376,-1.010368585586548,2.389449834823608,-9.610472679138183,26.45
4,501,0.006391684990376,-0.049002911895514,0.007456964813173,-0.981637656688690,2.317622661590576,-9.490760803222656,26.46
4,502,0.006391684990376,-0.049002911895514,0.007456964813173,-1.010368585586548,2.365507364273071,-9.591318130493164,26.45
4,503,0.006391684990376,-0.049002911895514,0.007456964813173,-1.010368585586548,2.365507364273071,-9.591318130493164,26.45
4,504,0.007456964813173,-0.050068192183971,0.007456964813173,-1.015156984329224,2.341564893722534,-9.553009986877441,26.46
4,505,0.006391684990376,-0.050068192183971,0.005326403304935,-1.034310936927795,2.360718727111816,-9.624837875366210,26.45
4,506,0.007456964813173,-0.050068192183971,0.006391684990376,-1.010368585586548,2.322411060333252,-9.533856391906738,26.45
4,507,0.006391684990376,-0.047937631607056,0.006391684990376,-1.010368585586548,2.341564893722534,-9.562587738037109,26.44
4,508,0.006391684990376,-0.050068192183971,0.005326403304935,-1.024734020233154,2.317622661590576,-9.485972404479980,26.45
4,509,0.007456964813173,-0.049002911895514,0.006391684990376,-1.015156984329224,2.298468589782715,-9.562587738037109,26.46
4,510,0.005326403304935,-0.047937631607056,0.006391684990376,-1.010368585586548,2.355930328369141,-9.581741333007812,26.44
4,511,0.005326403304935,-0.049002911895514,0.007456964813173,-1.024734020233154,2.360718727111816,-9.505125999450683,26.47
4,512,0.007456964813173,-0.049002911895514,0.005326403304935,-1.000791549682617,2.308045625686645,-9.557799339294433,26.46
4,513,0.006391684990376,-0.051133479923010,0.006391684990376,-0.976849198341370,2.346353530883789,-9.538644790649414,26.46
4,514,0.007456964813173,-0.049002911895514,0.006391684990376,-0.976849198341370,2.284103155136108,-9.553009986877441,26.46
4,515,0.006391684990376,-0.050068192183971,0.006391684990376,-0.962483763694763,2.308045625686645,-9.600895881652832,26.47
4,516,0.007456964813173,-0.050068192183971,0.006391684990376,-1.015156984329224,2.346353530883789,-9.529067993164062,26.46
4,517,0.007456964813173,-0.050068192183971,0.006391684990376,-1.015156984329224,2.346353530883789,-9.529067993164062,26.46
4,518,0.005326403304935,-0.050068192183971,0.006391684990376,-0.991214632987976,2.322411060333252,-9.567376136779785,26.45
4,519,0.005326403304935,-0.049002911895514,0.006391684990376,-1.010368585586548,2.336776494979858,-9.572164535522460,26.45
4,520,0.005326403304935,-0.050068192183971,0.006391684990376,-1.019945502281189,2.331988096237183,-9.596106529235839,26.48
4,521,0.007456964813173,-0.050068192183971,0.007456964813173,-0.972060739994049,2.384661197662353,-9.581741333007812,26.45
4,522,0.006391684990376,-0.050068192183971,0.006391684990376,-1.019945502281189,2.308045625686645,-9.548221588134765,26.45
4,523,0.006391684990376,-0.049002911895514,0.006391684990376,-1.000791549682617,2.308045625686645,-9.505125999450683,26.46
4,524,0.006391684990376,-0.050068192183971,0.007456964813173,-0.991214632987976,2.355930328369141,-9.514702796936035,26.44
4,525,0.005326403304935,-0.050068192183971,0.006391684990376,-1.005580067634582,2.331988096237183,-9.519491195678710,26.45
4,526,0.006391684990376,-0.050068192183971,0.006391684990376,-0.976849198341370,2.346353530883789,-9.538644790649414,26.46
4,527,0.005326403304935,-0.049002911895514,0.006391684990376,-1.010368585586548,2.331988096237183,-9.567376136779785,26.44
4,528,0.006391684990376,-0.049002911895514,0.007456964813173,-1.039099335670471,2.346353530883789,-9.620049476623535,26.44
4,529,0.006391684990376,-0.049002911895514,0.006391684990376,-1.019945502281189,2.336776494979858,-9.548221588134765,26.48
4,530,0.006391684990376,-0.049002911895514,0.005326403304935,-0.981637656688690,2.346353530883789,-9.557799339294433,26.46
4,531,0.006391684990376,-0.049002911895514,0.005326403304935,-0.981637656688690,2.346353530883789,-9.557799339294433,26.46
4,532,0.006391684990376,-0.050068192183971,0.007456964813173,-1.029522418975830,2.331988096237183,-9.529067993164062,26.46
4,533,0.007456964813173,-0.051133479923010,0.005326403304935,-0.991214632987976,2.389449834823608,-9.581741333007812,26.47
4,534,0.005326403304935,-0.049002911895514,0.007456964813173,-1.010368585586548,2.317622661590576,-9.514702796936035,26.48
4,535,0.007456964813173,-0.049002911895514,0.006391684990376,-1.005580067634582,2.351141929626465,-9.557799339294433,26.46
4,536,0.006391684990376,-0.049002911895514,0.006391684990376,-1.019945502281189,2.351141929626465,-9.557799339294433,26.45
4,537,0.007456964813173,-0.047937631607056,0.007456964813173,-1.005580067634582,2.336776494979858,-9.514702796936035,26.45
4,538,0.006391684990376,-0.050068192183971,0.006391684990376,-1.010368585586548,2.331988096237183,-9.567376136779785,26.45
4,539,0.006391684990376,-0.050068192183971,0.006391684990376,-1.010368585586548,2.327199459075928,-9.538644790649414,26.45
4,540,0.006391684990376,-0.050068192183971,0.006391684990376,-0.972060739994049,2.336776494979858,-9.529067993164062,26.45
4,541,0.006391684990376,-0.050068192183971,0.005326403304935,-0.957695305347443,2.379872798919678,-9.543433189392089,26.46
4,542,0.006391684990376,-0.049002911895514,0.005326403304935,-0.996003091335297,2.341564893722534,-9.519491195678710,26.45
4,543,0.006391684990376,-0.049002911895514,0.007456964813173,-0.986426174640656,2.336776494979858,-9.576952934265136,26.45
4,544,0.006391684990376,-0.049002911895514,0.007456964813173,-1.010368585586548,2.370296001434326,-9.553009986877441,26.47
4,545,0.006391684990376,-0.050068192183971,0.007456964813173,-1.005580067634582,2.312834262847900,-9.610472679138183,26.45
4,546,0.006391684990376,-0.050068192183971,0.007456964813173,-1.005580067634582,2.312834262847900,-9.610472679138183,26.45
4,547,0.006391684990376,-0.049002911895514,0.006391684990376,-0.996003091335297,2.331988096237183,-9.586529731750488,26.46
4,548,0.006391684990376,-0.050068192183971,0.006391684990376,-1.010368585586548,2.370296001434326,-9.557799339294433,26.46
4,549,0.007456964813173,-0.050068192183971,0.006391684990376,-1.010368585586548,2.355930328369141,-9.543433189392089,26.44
4,550,0.006391684990376,-0.049002911895514,0.006391684990376,-1.010368585586548,2.346353530883789,-9.567376136779785,26.45
4,551,0.005326403304935,-0.049002911895514,0.006391684990376,-1.053464770317078,2.360718727111816,-9.543433189392089,26.45
4,552,0.006391684990376,-0.047937631607056,0.007456964813173,-0.996003091335297,2.341564893722534,-9.620049476623535,26.45
4,553,0.007456964813173,-0.049002911895514,0.007456964813173,-1.010368585586548,2.375084400177002,-9.624837875366210,26.44
4,554,0.006391684990376,-0.050068192183971,0.006391684990376,-1.010368585586548,2.327199459075928,-9.543433189392089,26.44
4,555,0.005326403304935,-0.047937631607056,0.006391684990376,-0.986426174640656,2.346353530883789,-9.591318130493164,26.45
4,556,0.006391684990376,-0.049002911895514,0.007456964813173,-1.039099335670471,2.331988096237183,-9.476394653320312,26.44
4,557,0.007456964813173,-0.047937631607056,0.006391684990376,-0.996003091335297,2.322411060333252,-9.548221588134765,26.46
4,558,0.006391684990376,-0.050068192183971,0.006391684990376,-0.972060739994049,2.346353530883789,-9.543433189392089,26.46
4,559,0.007456964813173,-0.051133479923010,0.006391684990376,-1.000791549682617,2.308045625686645,-9.495549201965332,26.46
4,560,0.007456964813173,-0.051133479923010,0.006391684990376,-1.000791549682617,2.308045625686645,-9.495549201965332,26.46
4,561,0.008522246032953,-0.049002911895514,0.006391684990376,-0.996003091335297,2.351141929626465,-9.495549201965332,26.45
4,562,0.006391684990376,-0.049002911895514,0.006391684990376,-1.043887853622436,2.379872798919678,-9.514702796936035,26.47
4,563,0.006391684990376,-0.049002911895514,0.007456964813173,-1.019945502281189,2.351141929626465,-9.562587738037109,26.46
4,564,0.007456964813173,-0.049002911895514,0.006391684990376,-1.005580067634582,2.365507364273071,-9.581741333007812,26.47
4,565,0.006391684990376,-0.050068192183971,0.006391684990376,-1.010368585586548,2.365507364273071,-9.505125999450683,26.46
4,566,0.006391684990376,-0.047937631607056,0.005326403304935,-1.029522418975830,2.327199459075928,-9.620049476623535,26.45
4,567,0.005326403304935,-0.049002911895514,0.006391684990376,-1.000791549682617,2.331988096237183,-9.538644790649414,26.47
4,568,0.006391684990376,-0.050068192183971,0.006391684990376,-0.996003091335297,2.355930328369141,-9.538644790649414,26.48
4,569,0.007456964813173,-0.049002911895514,0.006391684990376,-1.005580067634582,2.336776494979858,-9.543433189392089,26.45
4,570,0.006391684990376,-0.047937631607056,0.007456964813173,-1.024734020233154,2.317622661590576,-9.543433189392089,26.45
4,571,0.006391684990376,-0.050068192183971,0.006391684990376,-1.029522418975830,2.365507364273071,-9.529067993164062,26.46
4,572,0.006391684990376,-0.050068192183971,0.007456964813173,-1.024734020233154,2.360718727111816,-9.581741333007812,26.46
4,573,0.006391684990376,-0.049002911895514,0.006391684990376,-0.991214632987976,2.327199459075928,-9.610472679138183,26.45
4,574,0.006391684990376,-0.049002911895514,0.006391684990376,-0.991214632987976,2.327199459075928,-9.610472679138183,26.45
4,575,0.006391684990376,-0.049002911895514,0.006391684990376,-1.010368585586548,2.351141929626465,-9.485972404479980,26.45
4,576,0.006391684990376,-0.050068192183971,0.006391684990376,-1.072618722915649,2.317622661590576,-9.591318130493164,26.45
4,577,0.005326403304935,-0.051133479923010,0.006391684990376,-1.015156984329224,2.331988096237183,-9.529067993164062,26.46
4,578,0.007456964813173,-0.047937631607056,0.007456964813173,-0.976849198341370,2.308045625686645,-9.620049476623535,26.46
4,579,0.006391684990376,-0.049002911895514,0.007456964813173,-0.996003091335297,2.341564893722534,-9.557799339294433,26.46
4,580,0.006391684990376,-0.049002911895514,0.006391684990376,-0.967272222042084,2.365507364273071,-9.471606254577636,26.47
4,581,0.006391684990376,-0.050068192183971,0.006391684990376,-1.039099335670471,2.341564893722534,-9.572164535522460,26.46
4,582,0.006391684990376,-0.049002911895514,0.007456964813173,-1.005580067634582,2.317622661590576,-9.600895881652832,26.48
4,583,0.006391684990376,-0.049002911895514,0.007456964813173,-0.991214632987976,2.341564893722534,-9.591318130493164,26.48
4,584,0.008522246032953,-0.049002911895514,0.006391684990376,-0.972060739994049,2.327199459075928,-9.572164535522460,26.47
4,585,0.006391684990376,-0.050068192183971,0.006391684990376,-1.010368585586548,2.355930328369141,-9.562587738037109,26.45
4,586,0.007456964813173,-0.049002911895514,0.006391684990376,-1.000791549682617,2.327199459075928,-9.557799339294433,26.47
4,587,0.006391684990376,-0.050068192183971,0.006391684990376,-0.996003091335297,2.360718727111816,-9.509914398193359,26.47
4,588,0.006391684990376,-0.050068192183971,0.006391684990376,-0.996003091335297,2.360718727111816,-9.509914398193359,26.47
4,589,0.005326403304935,-0.047937631607056,0.005326403304935,-1.015156984329224,2.317622661590576,-9.600895881652832,26.46
4,590,0.006391684990376,-0.049002911895514,0.006391684990376,-1.019945502281189,2.317622661590576,-9.591318130493164,26.47
4,591,0.007456964813173,-0.049002911895514,0.006391684990376,-0.986426174640656,2.375084400177002,-9.615261077880859,26.47
4,592,0.007456964813173,-0.049002911895514,0.005326403304935,-1.015156984329224,2.336776494979858,-9.524279594421386,26.48
4,593,0.006391684990376,-0.047937631607056,0.006391684990376,-0.967272222042084,2.336776494979858,-9.586529731750488,26.47
4,594,0.006391684990376,-0.050068192183971,0.006391684990376,-1.024734020233154,2.336776494979858,-9.548221588134765,26.48
4,595,0.006391684990376,-0.049002911895514,0.006391684990376,-0.981637656688690,2.336776494979858,-9.553009986877441,26.48
4,596,0.007456964813173,-0.051133479923010,0.007456964813173,-1.010368585586548,2.331988096237183,-9.572164535522460,26.46
4,597,0.006391684990376,-0.049002911895514,0.006391684990376,-1.043887853622436,2.308045625686645,-9.514702796936035,26.48
4,598,0.006391684990376,-0.047937631607056,0.006391684990376,-0.981637656688690,2.327199459075928,-9.557799339294433,26.46
4,599,0.006391684990376,-0.049002911895514,0.006391684990376,-1.034310936927795,2.308045625686645,-9.581741333007812,26.46
4,600,0.006391684990376,-0.049002911895514,0.006391684990376,-0.996003091335297,2.341564893722534,-9.538644790649414,26.47
4,601,0.006391684990376,-0.049002911895514,0.006391684990376,-0.996003091335297,2.308045625686645,-9.572164535522460,26.46
4,602,0.006391684990376,-0.049002911895514,0.006391684990376,-0.996003091335297,2.308045625686645,-9.572164535522460,26.46
4,603,0.006391684990376,-0.049002911895514,0.006391684990376,-1.039099335670471,2.360718727111816,-9.605684280395507,26.49
4,604,0.006391684990376,-0.050068192183971,0.005326403304935,-1.010368585586548,2.384661197662353,-9.572164535522460,26.47
4,605,0.006391684990376,-0.049002911895514,0.006391684990376,-1.019945502281189,2.379872798919678,-9.553009986877441,26.46
4,606,0.006391684990376,-0.049002911895514,0.005326403304935,-1.000791549682617,2.327199459075928,-9.543433189392089,26.47
4,607,0.007456964813173,-0.051133479923010,0.005326403304935,-1.019945502281189,2.355930328369141,-9.557799339294433,26.47
4,608,0.005326403304935,-0.049002911895514,0.006391684990376,-0.986426174640656,2.346353530883789,-9.615261077880859,26.46
4,609,0.005326403304935,-0.047937631607056,0.006391684990376,-1.048676371574402,2.312834262847900,-9.519491195678710,26.47
4,610,0.006391684990376,-0.049002911895514,0.006391684990376,-0.996003091335297,2.336776494979858,-9.596106529235839,26.47
4,611,0.005326403304935,-0.049002911895514,0.004261123016477,-0.976849198341370,2.360718727111816,-9.610472679138183,26.46
4,612,0.008522246032953,-0.050068192183971,0.007456964813173,-1.029522418975830,2.312834262847900,-9.509914398193359,26.48
4,613,0.006391684990376,-0.049002911895514,0.005326403304935,-1.000791549682617,2.375084400177002,-9.596106529235839,26.48
4,614,0.007456964813173,-0.050068192183971,0.006391684990376,-0.991214632987976,2.355930328369141,-9.557799339294433,26.45
4,615,0.005326403304935,-0.049002911895514,0.006391684990376,-0.996003091335297,2.351141929626465,-9.567376136779785,26.46
4,616,0.005326403304935,-0.049002911895514,0.006391684990376,-0.996003091335297,2.351141929626465,-9.567376136779785,26.46
4,617,0.005326403304935,-0.050068192183971,0.005326403304935,-0.996003091335297,2.365507364273071,-9.596106529235839,26.47
4,618,0.006391684990376,-0.046872351318598,0.006391684990376,-1.010368585586548,2.312834262847900,-9.581741333007812,26.46
4,619,0.006391684990376,-0.049002911895514,0.006391684990376,-1.010368585586548,2.312834262847900,-9.562587738037109,26.47
4,620,0.005326403304935,-0.050068192183971,0.006391684990376,-1.000791549682617,2.351141929626465,-9.524279594421386,26.48
4,621,0.006391684990376,-0.049002911895514,0.007456964813173,-0.986426174640656,2.341564893722534,-9.615261077880859,26.47
4,622,0.005326403304935,-0.050068192183971,0.007456964813173,-1.005580067634582,2.308045625686645,-9.538644790649414,26.48
4,623,0.006391684990376,-0.049002911895514,0.005326403304935,-1.000791549682617,2.341564893722534,-9.529067993164062,26.45
4,624,0.006391684990376,-0.049002911895514,0.007456964813173,-0.986426174640656,2.360718727111816,-9.562587738037109,26.49
4,625,0.006391684990376,-0.049002911895514,0.006391684990376,-0.976849198341370,2.355930328369141,-9.529067993164062,26.45
4,626,0.007456964813173,-0.049002911895514,0.006391684990376,-1.024734020233154,2.351141929626465,-9.586529731750488,26.46
4,627,0.006391684990376,-0.049002911895514,0.007456964813173,-1.029522418975830,2.351141929626465,-9.576952934265136,26.47
4,628,0.006391684990376,-0.050068192183971,0.005326403304935,-1.019945502281189,2.336776494979858,-9.586529731750488,26.46
4,629,0.007456964813173,-0.047937631607056,0.006391684990376,-1.043887853622436,2.346353530883789,-9.586529731750488,26.48
4,630,0.006391684990376,-0.050068192183971,0.006391684990376,-1.000791549682617,2.284103155136108,-9.533856391906738,26.45
4,631,0.006391684990376,-0.050068192183971,0.006391684990376,-1.000791549682617,2.284103155136108,-9.533856391906738,26.45
4,632,0.008522246032953,-0.050068192183971,0.007456964813173,-1.015156984329224,2.327199459075928,-9.557799339294433,26.47
4,633,0.006391684990376,-0.051133479923010,0.005326403304935,-0.967272222042084,2.322411060333252,-9.596106529235839,26.47
4,634,0.006391684990376,-0.050068192183971,0.006391684990376,-0.972060739994049,2.341564893722534,-9.572164535522460,26.48
4,635,0.008522246032953,-0.049002911895514,0.005326403304935,-1.039099335670471,2.346353530883789,-9.600895881652832,26.46
4,636,0.006391684990376,-0.049002911895514,0.006391684990376,-1.010368585586548,2.370296001434326,-9.509914398193359,26.49
4,637,0.006391684990376,-0.049002911895514,0.007456964813173,-1.024734020233154,2.355930328369141,-9.543433189392089,26.47
4,638,0.006391684990376,-0.047937631607056,0.007456964813173,-1.029522418975830,2.365507364273071,-9.543433189392089,26.49
4,639,0.005326403304935,-0.049002911895514,0.005326403304935,-1.010368585586548,2.360718727111816,-9.643991470336914,26.50
4,640,0.006391684990376,-0.050068192183971,0.006391684990376,-1.015156984329224,2.269737958908081,-9.543433189392089,26.47
4,641,0.006391684990376,-0.049002911895514,0.006391684990376,-1.034310936927795,2.351141929626465,-9.615261077880859,26.47
4,642,0.007456964813173,-0.050068192183971,0.006391684990376,-1.048676371574402,2.360718727111816,-9.605684280395507,26.48
4,643,0.007456964813173,-0.050068192183971,0.006391684990376,-1.010368585586548,2.279314756393433,-9.557799339294433,26.46
4,644,0.006391684990376,-0.049002911895514,0.006391684990376,-1.015156984329224,2.360718727111816,-9.620049476623535,26.48
4,645,0.006391684990376,-0.049002911895514,0.006391684990376,-1.015156984329224,2.360718727111816,-9.620049476623535,26.48
4,646,0.006391684990376,-0.050068192183971,0.006391684990376,-1.039099335670471,2.317622661590576,-9.538644790649414,26.45
4,647,0.007456964813173,-0.047937631607056,0.007456964813173,-1.034310936927795,2.365507364273071,-9.639203071594238,26.48
4,648,0.005326403304935,-0.049002911895514,0.006391684990376,-1.024734020233154,2.336776494979858,-9.548221588134765,26.48
4,649,0.006391684990376,-0.050068192183971,0.006391684990376,-1.015156984329224,2.308045625686645,-9.557799339294433,26.46
4,650,0.007456964813173,-0.049002911895514,0.006391684990376,-0.996003091335297,2.341564893722534,-9.524279594421386,26.46
4,651,0.005326403304935,-0.050068192183971,0.006391684990376,-1.024734020233154,2.331988096237183,-9.596106529235839,26.48
4,652,0.006391684990376,-0.050068192183971,0.006391684990376,-1.019945502281189,2.346353530883789,-9.557799339294433,26.48
4,653,0.007456964813173,-0.049002911895514,0.006391684990376,-0.986426174640656,2.312834262847900,-9.524279594421386,26.48
4,654,0.006391684990376,-0.049002911895514,0.006391684990376,-1.005580067634582,2.331988096237183,-9.490760803222656,26.47
4,655,0.007456964813173,-0.050068192183971,0.006391684990376,-1.005580067634582,2.327199459075928,-9.553009986877441,26.47
4,656,0.005326403304935,-0.047937631607056,0.005326403304935,-0.996003091335297,2.360718727111816,-9.557799339294433,26.48
4,657,0.006391684990376,-0.050068192183971,0.006391684990376,-1.005580067634582,2.298468589782715,-9.605684280395507,26.47
4,658,0.006391684990376,-0.049002911895514,0.006391684990376,-1.019945502281189,2.331988096237183,-9.581741333007812,26.48
4,659,0.006391684990376,-0.049002911895514,0.006391684990376,-1.019945502281189,2.331988096237183,-9.581741333007812,26.48
4,660,0.006391684990376,-0.049002911895514,0.006391684990376,-1.005580067634582,2.351141929626465,-9.529067993164062,26.47
4,661,0.006391684990376,-0.050068192183971,0.007456964813173,-1.005580067634582,2.351141929626465,-9.596106529235839,26.48
4,662,0.007456964813173,-0.049002911895514,0.007456964813173,-1.010368585586548,2.375084400177002,-9.524279594421386,26.46
4,663,0.006391684990376,-0.049002911895514,0.006391684990376,-0.996003091335297,2.303256988525391,-9.490760803222656,26.49
4,664,0.006391684990376,-0.049002911895514,0.007456964813173,-0.996003091335297,2.351141929626465,-9.581741333007812,26.48
4,665,0.005326403304935,-0.049002911895514,0.006391684990376,-1.000791549682617,2.336776494979858,-9.543433189392089,26.49
4,666,0.006391684990376,-0.049002911895514,0.007456964813173,-1.034310936927795,2.288891792297363,-9.543433189392089,26.46
4,667,0.006391684990376,-0.050068192183971,0.006391684990376,-0.976849198341370,2.351141929626465,-9.548221588134765,26.47
4,668,0.007456964813173,-0.050068192183971,0.006391684990376,-1.010368585586548,2.346353530883789,-9.586529731750488,26.47
4,669,0.005326403304935,-0.049002911895514,0.006391684990376,-0.948118329048157,2.327199459075928,-9.553009986877441,26.49
4,670,0.007456964813173,-0.049002911895514,0.005326403304935,-1.034310936927795,2.341564893722534,-9.557799339294433,26.46
4,671,0.006391684990376,-0.049002911895514,0.006391684990376,-1.034310936927795,2.327199459075928,-9.615261077880859,26.47
4,672,0.006391684990376,-0.049002911895514,0.006391684990376,-1.039099335670471,2.365507364273071,-9.553009986877441,26.45
4,673,0.006391684990376,-0.049002911895514,0.006391684990376,-1.039099335670471,2.365507364273071,-9.553009986877441,26.45
4,674,0.007456964813173,-0.049002911895514,0.006391684990376,-0.986426174640656,2.331988096237183,-9.572164535522460,26.45
4,675,0.008522246032953,-0.049002911895514,0.007456964813173,-1.005580067634582,2.331988096237183,-9.519491195678710,26.48
4,676,0.006391684990376,-0.050068192183971,0.006391684990376,-1.010368585586548,2.341564893722534,-9.581741333007812,26.48
4,677,0.006391684990376,-0.050068192183971,0.006391684990376,-1.005580067634582,2.322411060333252,-9.553009986877441,26.48
4,678,0.006391684990376,-0.049002911895514,0.006391684990376,-0.981637656688690,2.317622661590576,-9.572164535522460,26.47
4,679,0.006391684990376,-0.050068192183971,0.007456964813173,-0.986426174640656,2.370296001434326,-9.567376136779785,26.46
4,680,0.005326403304935,-0.049002911895514,0.006391684990376,-1.029522418975830,2.370296001434326,-9.600895881652832,26.47
4,681,0.007456964813173,-0.049002911895514,0.006391684990376,-0.996003091335297,2.336776494979858,-9.620049476623535,26.48
4,682,0.006391684990376,-0.050068192183971,0.006391684990376,-0.981637656688690,2.399026632308960,-9.509914398193359,26.48
4,683,0.006391684990376,-0.049002911895514,0.007456964813173,-1.015156984329224,2.317622661590576,-9.529067993164062,26.48
4,684,0.007456964813173,-0.049002911895514,0.005326403304935,-0.996003091335297,2.284103155136108,-9.610472679138183,26.48
4,685,0.006391684990376,-0.050068192183971,0.006391684990376,-1.010368585586548,2.351141929626465,-9.543433189392089,26.47
4,686,0.006391684990376,-0.049002911895514,0.006391684990376,-0.996003091335297,2.308045625686645,-9.576952934265136,26.46
4,687,0.006391684990376,-0.049002911895514,0.006391684990376,-1.024734020233154,2.365507364273071,-9.567376136779785,26.48
4,688,0.006391684990376,-0.049002911895514,0.006391684990376,-1.024734020233154,2.365507364273071,-9.567376136779785,26.48
4,689,0.006391684990376,-0.049002911895514,0.006391684990376,-1.005580067634582,2.327199459075928,-9.586529731750488,26.48
4,690,0.006391684990376,-0.049002911895514,0.006391684990376,-0.981637656688690,2.331988096237183,-9.553009986877441,26.48
4,691,0.006391684990376,-0.049002911895514,0.005326403304935,-1.010368585586548,2.346353530883789,-9.557799339294433,26.46
4,692,0.006391684990376,-0.050068192183971,0.006391684990376,-0.996003091335297,2.327199459075928,-9.548221588134765,26.47
4,693,0.006391684990376,-0.049002911895514,0.006391684990376,-1.000791549682617,2.341564893722534,-9.533856391906738,26.47
4,694,0.006391684990376,-0.050068192183971,0.007456964813173,-1.010368585586548,2.355930328369141,-9.586529731750488,26.48
4,695,0.006391684990376,-0.049002911895514,0.006391684990376,-1.019945502281189,2.317622661590576,-9.514702796936035,26.47
4,696,0.006391684990376,-0.049002911895514,0.006391684990376,-1.015156984329224,2.322411060333252,-9.548221588134765,26.48
4,697,0.006391684990376,-0.049002911895514,0.006391684990376,-1.024734020233154,2.370296001434326,-9.572164535522460,26.46
4,698,0.008522246032953,-0.051133479923010,0.006391684990376,-0.976849198341370,2.341564893722534,-9.581741333007812,26.48
4,699,0.006391684990376,-0.047937631607056,0.006391684990376,-0.986426174640656,2.279314756393433,-9.615261077880859,26.48
4,700,0.006391684990376,-0.050068192183971,0.006391684990376,-1.015156984329224,2.284103155136108,-9.538644790649414,26.48
4,701,0.006391684990376,-0.050068192183971,0.007456964813173,-1.015156984329224,2.308045625686645,-9.629626274108886,26.48
4,702,0.006391684990376,-0.050068192183971,0.007456964813173,-1.015156984329224,2.308045625686645,-9.629626274108886,26.48
4,703,0.006391684990376,-0.050068192183971,0.006391684990376,-0.981637656688690,2.365507364273071,-9.514702796936035,26.47
4,704,0.006391684990376,-0.049002911895514,0.005326403304935,-1.000791549682617,2.327199459075928,-9.596106529235839,26.49
4,705,0.005326403304935,-0.050068192183971,0.007456964813173,-1.029522418975830,2.336776494979858,-9.572164535522460,26.48
4,706,0.006391684990376,-0.049002911895514,0.005326403304935,-1.015156984329224,2.355930328369141,-9.519491195678710,26.49
4,707,0.006391684990376,-0.047937631607056,0.005326403304935,-0.976849198341370,2.351141929626465,-9.524279594421386,26.50
4,708,0.006391684990376,-0.050068192183971,0.007456964813173,-0.981637656688690,2.327199459075928,-9.562587738037109,26.50
4,709,0.006391684990376,-0.050068192183971,0.007456964813173,-0.976849198341370,2.298468589782715,-9.524279594421386,26.46
4,710,0.007456964813173,-0.047937631607056,0.006391684990376,-0.981637656688690,2.351141929626465,-9.524279594421386,26.47
4,711,0.006391684990376,-0.049002911895514,0.007456964813173,-0.981637656688690,2.336776494979858,-9.572164535522460,26.48
4,712,0.007456964813173,-0.047937631607056,0.006391684990376,-1.000791549682617,2.379872798919678,-9.567376136779785,26.48
4,713,0.007456964813173,-0.050068192183971,0.006391684990376,-1.024734020233154,2.346353530883789,-9.524279594421386,26.49
4,714,0.007456964813173,-0.050068192183971,0.006391684990376,-1.000791549682617,2.317622661590576,-9.620049476623535,26.50
4,715,0.007456964813173,-0.050068192183971,0.007456964813173,-1.043887853622436,2.327199459075928,-9.519491195678710,26.47
4,716,0.007456964813173,-0.050068192183971,0.007456964813173,-1.043887853622436,2.327199459075928,-9.519491195678710,26.47
4,717,0.005326403304935,-0.049002911895514,0.006391684990376,-0.991214632987976,2.375084400177002,-9.524279594421386,26.48
4,718,0.007456964813173,-0.050068192183971,0.005326403304935,-1.048676371574402,2.312834262847900,-9.572164535522460,26.47
4,719,0.007456964813173,-0.050068192183971,0.006391684990376,-0.986426174640656,2.355930328369141,-9.591318130493164,26.50
4,720,0.006391684990376,-0.050068192183971,0.007456964813173,-1.010368585586548,2.322411060333252,-9.562587738037109,26.48
4,721,0.006391684990376,-0.049002911895514,0.005326403304935,-1.005580067634582,2.336776494979858,-9.562587738037109,26.49
4,722,0.007456964813173,-0.049002911895514,0.005326403304935,-1.024734020233154,2.336776494979858,-9.581741333007812,26.49
4,723,0.005326403304935,-0.050068192183971,0.007456964813173,-0.952906787395477,2.312834262847900,-9.586529731750488,26.46
4,724,0.006391684990376,-0.049002911895514,0.006391684990376,-1.015156984329224,2.322411060333252,-9.548221588134765,26.50
4,725,0.007456964813173,-0.049002911895514,0.005326403304935,-0.981637656688690,2.341564893722534,-9.591318130493164,26.49
4,726,0.006391684990376,-0.050068192183971,0.007456964813173,-1.000791549682617,2.341564893722534,-9.548221588134765,26.48
4,727,0.005326403304935,-0.050068192183971,0.006391684990376,-1.019945502281189,2.336776494979858,-9.572164535522460,26.49
4,728,0.007456964813173,-0.051133479923010,0.006391684990376,-1.043887853622436,2.322411060333252,-9.562587738037109,26.47
4,729,0.005326403304935,-0.049002911895514,0.006391684990376,-0.996003091335297,2.327199459075928,-9.581741333007812,26.45
4,730,0.005326403304935,-0.049002911895514,0.006391684990376,-0.996003091335297,2.327199459075928,-9.581741333007812,26.45
4,731,0.005326403304935,-0.049002911895514,0.005326403304935,-1.010368585586548,2.365507364273071,-9.605684280395507,26.50
4,732,0.006391684990376,-0.049002911895514,0.006391684990376,-1.024734020233154,2.360718727111816,-9.586529731750488,26.48
4,733,0.006391684990376,-0.049002911895514,0.006391684990376,-1.019945502281189,2.365507364273071,-9.500337600708007,26.48
4,734,0.006391684990376,-0.049002911895514,0.006391684990376,-0.967272222042084,2.370296001434326,-9.557799339294433,26.47
4,735,0.006391684990376,-0.049002911895514,0.005326403304935,-1.000791549682617,2.351141929626465,-9.624837875366210,26.48
4,736,0.006391684990376,-0.047937631607056,0.006391684990376,-1.034310936927795,2.303256988525391,-9.553009986877441,26.50
4,737,0.006391684990376,-0.050068192183971,0.005326403304935,-0.996003091335297,2.293680191040039,-9.591318130493164,26.50
4,738,0.006391684990376,-0.051133479923010,0.006391684990376,-0.981637656688690,2.327199459075928,-9.538644790649414,26.47
4,739,0.006391684990376,-0.047937631607056,0.007456964813173,-0.981637656688690,2.312834262847900,-9.624837875366210,26.49
4,740,0.006391684990376,-0.049002911895514,0.006391684990376,-1.000791549682617,2.279314756393433,-9.505125999450683,26.46
4,741,0.006391684990376,-0.050068192183971,0.006391684990376,-0.991214632987976,2.365507364273071,-9.615261077880859,26.49
4,742,0.006391684990376,-0.050068192183971,0.005326403304935,-0.986426174640656,2.355930328369141,-9.553009986877441,26.49
4,743,0.006391684990376,-0.051133479923010,0.006391684990376,-1.005580067634582,2.346353530883789,-9.485972404479980,26.48
4,744,0.006391684990376,-0.051133479923010,0.006391684990376,-1.005580067634582,2.346353530883789,-9.485972404479980,26.48
4,745,0.006391684990376,-0.049002911895514,0.006391684990376,-1.015156984329224,2.351141929626465,-9.533856391906738,26.50
4,746,0.007456964813173,-0.049002911895514,0.005326403304935,-1.000791549682617,2.303256988525391,-9.610472679138183,26.48
4,747,0.005326403304935,-0.050068192183971,0.005326403304935,-0.986426174640656,2.346353530883789,-9.529067993164062,26.49
4,748,0.007456964813173,-0.049002911895514,0.006391684990376,-1.019945502281189,2.341564893722534,-9.581741333007812,26.49
4,749,0.006391684990376,-0.049002911895514,0.006391684990376,-0.981637656688690,2.303256988525391,-9.533856391906738,26.49
4,750,0.006391684990376,-0.049002911895514,0.006391684990376,-1.015156984329224,2.346353530883789,-9.572164535522460,26.49
4,751,0.007456964813173,-0.049002911895514,0.006391684990376,-1.024734020233154,2.317622661590576,-9.543433189392089,26.49
4,752,0.005326403304935,-0.049002911895514,0.006391684990376,-1.029522418975830,2.365507364273071,-9.562587738037109,26.50
4,753,0.006391684990376,-0.049002911895514,0.005326403304935,-1.000791549682617,2.355930328369141,-9.567376136779785,26.50
4,754,0.006391684990376,-0.049002911895514,0.007456964813173,-1.005580067634582,2.341564893722534,-9.572164535522460,26.49
4,755,0.006391684990376,-0.049002911895514,0.006391684990376,-1.005580067634582,2.341564893722534,-9.557799339294433,26.50
4,756,0.006391684990376,-0.049002911895514,0.006391684990376,-1.010368585586548,2.351141929626465,-9.586529731750488,26.50
4,757,0.005326403304935,-0.050068192183971,0.006391684990376,-0.967272222042084,2.298468589782715,-9.634414672851562,26.48
4,758,0.005326403304935,-0.050068192183971,0.006391684990376,-0.967272222042084,2.298468589782715,-9.634414672851562,26.48
4,759,0.007456964813173,-0.049002911895514,0.007456964813173,-1.029522418975830,2.336776494979858,-9.548221588134765,26.47
4,760,0.006391684990376,-0.047937631607056,0.007456964813173,-0.996003091335297,2.336776494979858,-9.572164535522460,26.49
4,761,0.007456964813173,-0.050068192183971,0.005326403304935,-1.063041806221008,2.308045625686645,-9.524279594421386,26.48
4,762,0.005326403304935,-0.049002911895514,0.006391684990376,-1.005580067634582,2.351141929626465,-9.653568267822265,26.49
4,763,0.006391684990376,-0.050068192183971,0.007456964813173,-1.010368585586548,2.341564893722534,-9.485972404479980,26.48
4,764,0.007456964813173,-0.049002911895514,0.007456964813173,-1.010368585586548,2.322411060333252,-9.543433189392089,26.47
4,765,0.006391684990376,-0.049002911895514,0.006391684990376,-1.000791549682617,2.355930328369141,-9.553009986877441,26.48
4,766,0.006391684990376,-0.049002911895514,0.006391684990376,-1.010368585586548,2.303256988525391,-9.605684280395507,26.48
4,767,0.008522246032953,-0.049002911895514,0.006391684990376,-1.034310936927795,2.365507364273071,-9.596106529235839,26.49
4,768,0.007456964813173,-0.050068192183971,0.006391684990376,-1.019945502281189,2.331988096237183,-9.476394653320312,26.49
4,769,0.006391684990376,-0.050068192183971,0.006391684990376,-0.981637656688690,2.365507364273071,-9.572164535522460,26.49
4,770,0.006391684990376,-0.049002911895514,0.007456964813173,-1.000791549682617,2.327199459075928,-9.572164535522460,26.48
4,771,0.006391684990376,-0.050068192183971,0.007456964813173,-1.010368585586548,2.312834262847900,-9.529067993164062,26.50
4,772,0.006391684990376,-0.050068192183971,0.007456964813173,-1.010368585586548,2.312834262847900,-9.529067993164062,26.50
4,773,0.006391684990376,-0.049002911895514,0.006391684990376,-0.996003091335297,2.327199459075928,-9.572164535522460,26.49
4,774,0.006391684990376,-0.051133479923010,0.007456964813173,-0.996003091335297,2.331988096237183,-9.600895881652832,26.49
4,775,0.005326403304935,-0.049002911895514,0.006391684990376,-0.957695305347443,2.317622661590576,-9.572164535522460,26.47
4,776,0.006391684990376,-0.050068192183971,0.006391684990376,-1.019945502281189,2.327199459075928,-9.586529731750488,26.50
4,777,0.006391684990376,-0.047937631607056,0.006391684990376,-0.991214632987976,2.346353530883789,-9.529067993164062,26.49
4,778,0.005326403304935,-0.050068192183971,0.006391684990376,-1.048676371574402,2.312834262847900,-9.557799339294433,26.49
4,779,0.006391684990376,-0.049002911895514,0.006391684990376,-1.000791549682617,2.303256988525391,-9.485972404479980,26.47
4,780,0.005326403304935,-0.049002911895514,0.006391684990376,-1.005580067634582,2.341564893722534,-9.615261077880859,26.47
4,781,0.008522246032953,-0.050068192183971,0.006391684990376,-1.072618722915649,2.336776494979858,-9.519491195678710,26.50
4,782,0.006391684990376,-0.049002911895514,0.006391684990376,-1.019945502281189,2.346353530883789,-9.591318130493164,26.48
4,783,0.007456964813173,-0.049002911895514,0.006391684990376,-1.034310936927795,2.331988096237183,-9.548221588134765,26.47
4,784,0.006391684990376,-0.049002911895514,0.006391684990376,-1.000791549682617,2.346353530883789,-9.591318130493164,26.50
4,785,0.005326403304935,-0.049002911895514,0.005326403304935,-0.986426174640656,2.322411060333252,-9.648779869079589,26.50
4,786,0.006391684990376,-0.050068192183971,0.007456964813173,-1.034310936927795,2.341564893722534,-9.548221588134765,26.49
4,787,0.006391684990376,-0.050068192183971,0.007456964813173,-1.034310936927795,2.341564893722534,-9.548221588134765,26.49
4,788,0.007456964813173,-0.047937631607056,0.006391684990376,-1.015156984329224,2.336776494979858,-9.605684280395507,26.48
4,789,0.006391684990376,-0.051133479923010,0.006391684990376,-1.058253288269043,2.365507364273071,-9.553009986877441,26.50
4,790,0.007456964813173,-0.047937631607056,0.006391684990376,-0.986426174640656,2.355930328369141,-9.610472679138183,26.49
4,791,0.006391684990376,-0.050068192183971,0.006391684990376,-1.010368585586548,2.379872798919678,-9.514702796936035,26.48
4,792,0.005326403304935,-0.049002911895514,0.007456964813173,-1.024734020233154,2.312834262847900,-9.581741333007812,26.50
4,793,0.007456964813173,-0.049002911895514,0.005326403304935,-0.991214632987976,2.365507364273071,-9.658356666564941,26.49
4,794,0.006391684990376,-0.050068192183971,0.007456964813173,-0.962483763694763,2.312834262847900,-9.576952934265136,26.48
4,795,0.005326403304935,-0.047937631607056,0.006391684990376,-0.952906787395477,2.336776494979858,-9.562587738037109,26.48
4,796,0.005326403304935,-0.049002911895514,0.007456964813173,-0.981637656688690,2.370296001434326,-9.519491195678710,26.47
4,797,0.006391684990376,-0.049002911895514,0.006391684990376,-0.996003091335297,2.331988096237183,-9.505125999450683,26.48
4,798,0.005326403304935,-0.049002911895514,0.006391684990376,-1.029522418975830,2.336776494979858,-9.596106529235839,26.48
4,799,0.007456964813173,-0.049002911895514,0.006391684990376,-1.019945502281189,2.336776494979858,-9.538644790649414,26.49
4,800,0.006391684990376,-0.050068192183971,0.006391684990376,-0.996003091335297,2.312834262847900,-9.514702796936035,26.48
4,801,0.006391684990376,-0.050068192183971,0.006391684990376,-0.996003091335297,2.312834262847900,-9.514702796936035,26.48
4,802,0.006391684990376,-0.049002911895514,0.006391684990376,-1.015156984329224,2.341564893722534,-9.576952934265136,26.48
4,803,0.006391684990376,-0.050068192183971,0.006391684990376,-0.976849198341370,2.370296001434326,-9.581741333007812,26.49
4,804,0.007456964813173,-0.051133479923010,0.006391684990376,-1.019945502281189,2.360718727111816,-9.538644790649414,26.50
4,805,0.006391684990376,-0.049002911895514,0.005326403304935,-0.991214632987976,2.365507364273071,-9.557799339294433,26.48
4,806,0.006391684990376,-0.049002911895514,0.006391684990376,-1.019945502281189,2.389449834823608,-9.524279594421386,26.49
4,807,0.006391684990376,-0.050068192183971,0.005326403304935,-1.034310936927795,2.336776494979858,-9.495549201965332,26.49
4,808,0.007456964813173,-0.047937631607056,0.005326403304935,-1.010368585586548,2.317622661590576,-9.567376136779785,26.48
4,809,0.006391684990376,-0.051133479923010,0.007456964813173,-1.019945502281189,2.355930328369141,-9.538644790649414,26.51
4,810,0.007456964813173,-0.049002911895514,0.006391684990376,-0.996003091335297,2.360718727111816,-9.543433189392089,26.50
4,811,0.006391684990376,-0.047937631607056,0.007456964813173,-1.024734020233154,2.336776494979858,-9.548221588134765,26.47
4,812,0.006391684990376,-0.049002911895514,0.006391684990376,-1.015156984329224,2.341564893722534,-9.533856391906738,26.49
4,813,0.005326403304935,-0.049002911895514,0.005326403304935,-1.000791549682617,2.336776494979858,-9.543433189392089,26.49
4,814,0.006391684990376,-0.050068192183971,0.006391684990376,-0.981637656688690,2.331988096237183,-9.505125999450683,26.51
4,815,0.006391684990376,-0.050068192183971,0.006391684990376,-0.981637656688690,2.331988096237183,-9.505125999450683,26.51
4,816,0.005326403304935,-0.049002911895514,0.005326403304935,-1.000791549682617,2.346353530883789,-9.557799339294433,26.51
4,817,0.005326403304935,-0.049002911895514,0.006391684990376,-1.015156984329224,2.331988096237183,-9.576952934265136,26.50
4,818,0.007456964813173,-0.049002911895514,0.006391684990376,-0.986426174640656,2.336776494979858,-9.500337600708007,26.49
4,819,0.006391684990376,-0.047937631607056,0.005326403304935,-0.996003091335297,2.355930328369141,-9.581741333007812,26.50
4,820,0.006391684990376,-0.049002911895514,0.005326403304935,-1.000791549682617,2.327199459075928,-9.543433189392089,26.48
4,821,0.006391684990376,-0.050068192183971,0.007456964813173,-0.981637656688690,2.375084400177002,-9.533856391906738,26.49
4,822,0.007456964813173,-0.050068192183971,0.006391684990376,-1.010368585586548,2.293680191040039,-9.629626274108886,26.48
4,823,0.005326403304935,-0.050068192183971,0.006391684990376,-0.986426174640656,2.370296001434326,-9.567376136779785,26.50
4,824,0.007456964813173,-0.050068192183971,0.006391684990376,-0.972060739994049,2.312834262847900,-9.576952934265136,26.49
4,825,0.006391684990376,-0.049002911895514,0.006391684990376,-1.019945502281189,2.351141929626465,-9.557799339294433,26.48
4,826,0.006391684990376,-0.051133479923010,0.006391684990376,-0.991214632987976,2.331988096237183,-9.591318130493164,26.50
4,827,0.007456964813173,-0.050068192183971,0.006391684990376,-0.996003091335297,2.322411060333252,-9.629626274108886,26.49
4,828,0.006391684990376,-0.049002911895514,0.006391684990376,-1.029522418975830,2.308045625686645,-9.548221588134765,26.49
4,829,0.006391684990376,-0.049002911895514,0.006391684990376,-1.029522418975830,2.308045625686645,-9.548221588134765,26.49
4,830,0.006391684990376,-0.050068192183971,0.006391684990376,-1.077407240867615,2.331988096237183,-9.562587738037109,26.49
4,831,0.006391684990376,-0.049002911895514,0.006391684990376,-1.019945502281189,2.375084400177002,-9.605684280395507,26.48
4,832,0.005326403304935,-0.050068192183971,0.007456964813173,-1.043887853622436,2.346353530883789,-9.466817855834960,26.48
4,833,0.006391684990376,-0.049002911895514,0.006391684990376,-1.010368585586548,2.351141929626465,-9.576952934265136,26.50
4,834,0.006391684990376,-0.049002911895514,0.006391684990376,-1.000791549682617,2.336776494979858,-9.538644790649414,26.49
4,835,0.006391684990376,-0.049002911895514,0.005326403304935,-1.082195639610290,2.341564893722534,-9.533856391906738,26.52
4,836,0.005326403304935,-0.049002911895514,0.006391684990376,-0.996003091335297,2.351141929626465,-9.500337600708007,26.50
4,837,0.007456964813173,-0.049002911895514,0.005326403304935,-1.005580067634582,2.341564893722534,-9.586529731750488,26.49
4,838,0.005326403304935,-0.049002911895514,0.007456964813173,-0.996003091335297,2.360718727111816,-9.519491195678710,26.50
4,839,0.007456964813173,-0.050068192183971,0.006391684990376,-1.010368585586548,2.355930328369141,-9.572164535522460,26.51
4,840,0.006391684990376,-0.049002911895514,0.007456964813173,-0.986426174640656,2.322411060333252,-9.586529731750488,26.50
4,841,0.006391684990376,-0.050068192183971,0.006391684990376,-1.005580067634582,2.384661197662353,-9.553009986877441,26.51
4,842,0.006391684990376,-0.049002911895514,0.006391684990376,-1.005580067634582,2.341564893722534,-9.567376136779785,26.50
4,843,0.006391684990376,-0.049002911895514,0.006391684990376,-1.005580067634582,2.341564893722534,-9.567376136779785,26.50
4,844,0.006391684990376,-0.049002911895514,0.006391684990376,-1.005580067634582,2.360718727111816,-9.553009986877441,26.48
4,845,0.006391684990376,-0.047937631607056,0.005326403304935,-0.991214632987976,2.327199459075928,-9.600895881652832,26.48
4,846,0.006391684990376,-0.050068192183971,0.005326403304935,-1.039099335670471,2.322411060333252,-9.481184005737304,26.50
4,847,0.004261123016477,-0.050068192183971,0.006391684990376,-1.015156984329224,2.327199459075928,-9.533856391906738,26.53
4,848,0.007456964813173,-0.049002911895514,0.007456964813173,-0.986426174640656,2.322411060333252,-9.615261077880859,26.51
4,849,0.005326403304935,-0.050068192183971,0.006391684990376,-1.010368585586548,2.351141929626465,-9.591318130493164,26.48
4,850,0.006391684990376,-0.049002911895514,0.006391684990376,-1.024734020233154,2.312834262847900,-9.586529731750488,26.50
4,851,0.006391684990376,-0.049002911895514,0.007456964813173,-0.996003091335297,2.351141929626465,-9.591318130493164,26.50
4,852,0.007456964813173,-0.050068192183971,0.008522246032953,-1.029522418975830,2.312834262847900,-9.505125999450683,26.48
4,853,0.008522246032953,-0.049002911895514,0.007456964813173,-1.010368585586548,2.298468589782715,-9.576952934265136,26.48
4,854,0.006391684990376,-0.050068192183971,0.006391684990376,-1.034310936927795,2.351141929626465,-9.562587738037109,26.51
4,855,0.006391684990376,-0.049002911895514,0.006391684990376,-1.000791549682617,2.293680191040039,-9.591318130493164,26.49
4,856,0.007456964813173,-0.047937631607056,0.005326403304935,-1.005580067634582,2.355930328369141,-9.553009986877441,26.48
4,857,0.007456964813173,-0.047937631607056,0.005326403304935,-1.005580067634582,2.355930328369141,-9.553009986877441,26.48
4,858,0.006391684990376,-0.050068192183971,0.005326403304935,-0.996003091335297,2.341564893722534,-9.543433189392089,26.49
4,859,0.006391684990376,-0.049002911895514,0.006391684990376,-1.010368585586548,2.341564893722534,-9.586529731750488,26.48
4,860,0.006391684990376,-0.050068192183971,0.005326403304935,-0.991214632987976,2.346353530883789,-9.581741333007812,26.48
4,861,0.005326403304935,-0.049002911895514,0.006391684990376,-1.015156984329224,2.327199459075928,-9.529067993164062,26.50
4,862,0.007456964813173,-0.049002911895514,0.005326403304935,-1.019945502281189,2.346353530883789,-9.538644790649414,26.48
4,863,0.006391684990376,-0.050068192183971,0.006391684990376,-1.019945502281189,2.351141929626465,-9.538644790649414,26.48
4,864,0.007456964813173,-0.049002911895514,0.006391684990376,-1.039099335670471,2.379872798919678,-9.557799339294433,26.48
4,865,0.007456964813173,-0.050068192183971,0.006391684990376,-1.005580067634582,2.303256988525391,-9.557799339294433,26.48
4,866,0.006391684990376,-0.049002911895514,0.006391684990376,-1.043887853622436,2.346353530883789,-9.562587738037109,26.49
4,867,0.005326403304935,-0.050068192183971,0.006391684990376,-0.996003091335297,2.341564893722534,-9.548221588134765,26.50
4,868,0.006391684990376,-0.047937631607056,0.007456964813173,-1.024734020233154,2.360718727111816,-9.557799339294433,26.48
4,869,0.005326403304935,-0.050068192183971,0.006391684990376,-0.967272222042084,2.327199459075928,-9.557799339294433,26.48
4,870,0.006391684990376,-0.049002911895514,0.007456964813173,-1.019945502281189,2.308045625686645,-9.524279594421386,26.51
4,871,0.006391684990376,-0.049002911895514,0.007456964813173,-1.019945502281189,2.308045625686645,-9.524279594421386,26.51
4,872,0.006391684990376,-0.047937631607056,0.006391684990376,-1.019945502281189,2.336776494979858,-9.663145065307617,26.51
4,873,0.005326403304935,-0.050068192183971,0.007456964813173,-0.986426174640656,2.322411060333252,-9.562587738037109,26.51
4,874,0.005326403304935,-0.050068192183971,0.006391684990376,-1.053464770317078,2.375084400177002,-9.543433189392089,26.50
4,875,0.006391684990376,-0.050068192183971,0.006391684990376,-1.019945502281189,2.341564893722534,-9.538644790649414,26.51
4,876,0.007456964813173,-0.049002911895514,0.006391684990376,-1.034310936927795,2.355930328369141,-9.562587738037109,26.50
4,877,0.007456964813173,-0.049002911895514,0.005326403304935,-0.967272222042084,2.341564893722534,-9.514702796936035,26.49
4,878,0.006391684990376,-0.050068192183971,0.006391684990376,-1.043887853622436,2.327199459075928,-9.562587738037109,26.51
4,879,0.006391684990376,-0.049002911895514,0.006391684990376,-1.005580067634582,2.346353530883789,-9.538644790649414,26.54
4,880,0.006391684990376,-0.049002911895514,0.006391684990376,-0.986426174640656,2.322411060333252,-9.553009986877441,26.50
4,881,0.005326403304935,-0.049002911895514,0.006391684990376,-1.043887853622436,2.312834262847900,-9.553009986877441,26.50
4,882,0.008522246032953,-0.049002911895514,0.007456964813173,-1.039099335670471,2.370296001434326,-9.562587738037109,26.49
4,883,0.007456964813173,-0.049002911895514,0.006391684990376,-1.005580067634582,2.293680191040039,-9.591318130493164,26.50
4,884,0.006391684990376,-0.049002911895514,0.006391684990376,-1.039099335670471,2.322411060333252,-9.572164535522460,26.51
4,885,0.006391684990376,-0.050068192183971,0.006391684990376,-0.991214632987976,2.293680191040039,-9.548221588134765,26.51
4,886,0.006391684990376,-0.050068192183971,0.006391684990376,-0.991214632987976,2.293680191040039,-9.548221588134765,26.51
4,887,0.006391684990376,-0.049002911895514,0.005326403304935,-1.034310936927795,2.384661197662353,-9.524279594421386,26.52
4,888,0.006391684990376,-0.047937631607056,0.006391684990376,-1.015156984329224,2.336776494979858,-9.634414672851562,26.50
4,889,0.007456964813173,-0.050068192183971,0.006391684990376,-1.072618722915649,2.399026632308960,-9.572164535522460,26.50
4,890,0.006391684990376,-0.047937631607056,0.006391684990376,-1.015156984329224,2.303256988525391,-9.519491195678710,26.53
4,891,0.006391684990376,-0.049002911895514,0.006391684990376,-1.034310936927795,2.360718727111816,-9.586529731750488,26.50
4,892,0.006391684990376,-0.049002911895514,0.006391684990376,-1.019945502281189,2.365507364273071,-9.600895881652832,26.49
4,893,0.006391684990376,-0.047937631607056,0.005326403304935,-0.981637656688690,2.308045625686645,-9.562587738037109,26.51
4,894,0.007456964813173,-0.049002911895514,0.006391684990376,-1.048676371574402,2.336776494979858,-9.596106529235839,26.51
4,895,0.006391684990376,-0.050068192183971,0.005326403304935,-0.991214632987976,2.355930328369141,-9.553009986877441,26.49
4,896,0.006391684990376,-0.050068192183971,0.006391684990376,-1.010368585586548,2.327199459075928,-9.557799339294433,26.51
4,897,0.007456964813173,-0.049002911895514,0.007456964813173,-1.034310936927795,2.365507364273071,-9.519491195678710,26.52
4,898,0.007456964813173,-0.049002911895514,0.007456964813173,-1.029522418975830,2.351141929626465,-9.562587738037109,26.50
4,899,0.006391684990376,-0.049002911895514,0.006391684990376,-1.034310936927795,2.331988096237183,-9.533856391906738,26.51
4,900,0.006391684990376,-0.049002911895514,0.006391684990376,-1.034310936927795,2.331988096237183,-9.533856391906738,26.51
4,901,0.005326403304935,-0.049002911895514,0.006391684990376,-1.015156984329224,2.351141929626465,-9.586529731750488,26.52
4,902,0.007456964813173,-0.050068192183971,0.007456964813173,-1.053464770317078,2.370296001434326,-9.538644790649414,26.51
4,903,0.006391684990376,-0.049002911895514,0.006391684990376,-0.991214632987976,2.327199459075928,-9.553009986877441,26.50
4,904,0.006391684990376,-0.050068192183971,0.005326403304935,-1.039099335670471,2.317622661590576,-9.524279594421386,26.49
4,905,0.008522246032953,-0.050068192183971,0.006391684990376,-1.029522418975830,2.312834262847900,-9.591318130493164,26.48
4,906,0.006391684990376,-0.049002911895514,0.007456964813173,-1.010368585586548,2.365507364273071,-9.605684280395507,26.50
4,907,0.007456964813173,-0.047937631607056,0.007456964813173,-0.996003091335297,2.336776494979858,-9.553009986877441,26.51
4,908,0.006391684990376,-0.047937631607056,0.006391684990376,-0.996003091335297,2.341564893722534,-9.557799339294433,26.51
4,909,0.006391684990376,-0.049002911895514,0.007456964813173,-0.996003091335297,2.327199459075928,-9.553009986877441,26.51
4,910,0.005326403304935,-0.049002911895514,0.006391684990376,-1.029522418975830,2.336776494979858,-9.514702796936035,26.49
4,911,0.006391684990376,-0.049002911895514,0.006391684990376,-0.986426174640656,2.379872798919678,-9.643991470336914,26.51
4,912,0.005326403304935,-0.050068192183971,0.007456964813173,-0.996003091335297,2.351141929626465,-9.538644790649414,26.50
4,913,0.006391684990376,-0.047937631607056,0.006391684990376,-1.005580067634582,2.317622661590576,-9.543433189392089,26.50
4,914,0.006391684990376,-0.047937631607056,0.006391684990376,-1.005580067634582,2.317622661590576,-9.543433189392089,26.50
4,915,0.007456964813173,-0.049002911895514,0.005326403304935,-1.015156984329224,2.351141929626465,-9.610472679138183,26.50
4,916,0.007456964813173,-0.049002911895514,0.006391684990376,-0.991214632987976,2.341564893722534,-9.615261077880859,26.52
4,917,0.007456964813173,-0.049002911895514,0.006391684990376,-1.024734020233154,2.351141929626465,-9.548221588134765,26.50
4,918,0.007456964813173,-0.049002911895514,0.006391684990376,-1.000791549682617,2.317622661590576,-9.548221588134765,26.51
4,919,0.007456964813173,-0.049002911895514,0.007456964813173,-0.991214632987976,2.322411060333252,-9.600895881652832,26.49
4,920,0.007456964813173,-0.049002911895514,0.006391684990376,-1.010368585586548,2.327199459075928,-9.553009986877441,26.51
4,921,0.005326403304935,-0.047937631607056,0.006391684990376,-0.986426174640656,2.331988096237183,-9.615261077880859,26.51
4,922,0.007456964813173,-0.049002911895514,0.007456964813173,-1.010368585586548,2.365507364273071,-9.490760803222656,26.52
4,923,0.005326403304935,-0.047937631607056,0.006391684990376,-0.996003091335297,2.360718727111816,-9.519491195678710,26.52
4,924,0.005326403304935,-0.050068192183971,0.006391684990376,-0.996003091335297,2.317622661590576,-9.576952934265136,26.53
4,925,0.006391684990376,-0.049002911895514,0.006391684990376,-0.976849198341370,2.379872798919678,-9.557799339294433,26.53
4,926,0.007456964813173,-0.049002911895514,0.006391684990376,-0.976849198341370,2.293680191040039,-9.572164535522460,26.50
4,927,0.006391684990376,-0.050068192183971,0.006391684990376,-1.019945502281189,2.322411060333252,-9.533856391906738,26.51
4,928,0.006391684990376,-0.050068192183971,0.006391684990376,-1.019945502281189,2.322411060333252,-9.533856391906738,26.51
4,929,0.005326403304935,-0.047937631607056,0.006391684990376,-1.015156984329224,2.346353530883789,-9.586529731750488,26.53
4,930,0.006391684990376,-0.051133479923010,0.006391684990376,-0.967272222042084,2.336776494979858,-9.495549201965332,26.54
4,931,0.006391684990376,-0.047937631607056,0.005326403304935,-0.991214632987976,2.346353530883789,-9.615261077880859,26.51
4,932,0.006391684990376,-0.047937631607056,0.006391684990376,-1.053464770317078,2.341564893722534,-9.538644790649414,26.51
4,933,0.006391684990376,-0.050068192183971,0.006391684990376,-1.010368585586548,2.317622661590576,-9.529067993164062,26.49
4,934,0.005326403304935,-0.045807071030140,0.007456964813173,-0.976849198341370,2.331988096237183,-9.572164535522460,26.49
4,935,0.007456964813173,-0.050068192183971,0.006391684990376,-1.000791549682617,2.341564893722534,-9.591318130493164,26.50
4,936,0.006391684990376,-0.049002911895514,0.006391684990376,-1.000791549682617,2.312834262847900,-9.553009986877441,26.52
4,937,0.005326403304935,-0.047937631607056,0.006391684990376,-1.000791549682617,2.303256988525391,-9.591318130493164,26.48
4,938,0.006391684990376,-0.049002911895514,0.006391684990376,-0.996003091335297,2.346353530883789,-9.572164535522460,26.52
4,939,0.007456964813173,-0.050068192183971,0.005326403304935,-1.019945502281189,2.327199459075928,-9.543433189392089,26.52
4,940,0.006391684990376,-0.049002911895514,0.006391684990376,-1.000791549682617,2.331988096237183,-9.538644790649414,26.50
4,941,0.005326403304935,-0.047937631607056,0.005326403304935,-1.015156984329224,2.317622661590576,-9.505125999450683,26.51
4,942,0.005326403304935,-0.047937631607056,0.005326403304935,-1.015156984329224,2.317622661590576,-9.505125999450683,26.51
4,943,0.006391684990376,-0.050068192183971,0.006391684990376,-1.015156984329224,2.308045625686645,-9.567376136779785,26.50
4,944,0.006391684990376,-0.049002911895514,0.006391684990376,-1.019945502281189,2.336776494979858,-9.562587738037109,26.51
4,945,0.007456964813173,-0.049002911895514,0.006391684990376,-1.029522418975830,2.308045625686645,-9.533856391906738,26.52
4,946,0.006391684990376,-0.049002911895514,0.006391684990376,-1.000791549682617,2.331988096237183,-9.581741333007812,26.51
4,947,0.005326403304935,-0.049002911895514,0.006391684990376,-1.015156984329224,2.346353530883789,-9.572164535522460,26.50
4,948,0.006391684990376,-0.050068192183971,0.007456964813173,-1.024734020233154,2.303256988525391,-9.500337600708007,26.51
4,949,0.006391684990376,-0.049002911895514,0.006391684990376,-0.991214632987976,2.327199459075928,-9.562587738037109,26.51
4,950,0.007456964813173,-0.049002911895514,0.006391684990376,-1.082195639610290,2.331988096237183,-9.567376136779785,26.51
4,951,0.006391684990376,-0.047937631607056,0.006391684990376,-0.972060739994049,2.351141929626465,-9.543433189392089,26.49
4,952,0.006391684990376,-0.050068192183971,0.006391684990376,-0.996003091335297,2.322411060333252,-9.586529731750488,26.50
4,953,0.006391684990376,-0.049002911895514,0.006391684990376,-1.034310936927795,2.279314756393433,-9.514702796936035,26.52
4,954,0.005326403304935,-0.049002911895514,0.006391684990376,-1.010368585586548,2.355930328369141,-9.610472679138183,26.51
4,955,0.007456964813173,-0.050068192183971,0.005326403304935,-0.976849198341370,2.336776494979858,-9.548221588134765,26.51
4,956,0.007456964813173,-0.050068192183971,0.005326403304935,-0.976849198341370,2.336776494979858,-9.548221588134765,26.51
4,957,0.005326403304935,-0.050068192183971,0.006391684990376,-1.019945502281189,2.351141929626465,-9.576952934265136,26.49
4,958,0.007456964813173,-0.050068192183971,0.006391684990376,-1.039099335670471,2.389449834823608,-9.572164535522460,26.51
4,959,0.006391684990376,-0.050068192183971,0.006391684990376,-0.986426174640656,2.351141929626465,-9.514702796936035,26.49
4,960,0.006391684990376,-0.049002911895514,0.006391684990376,-1.048676371574402,2.351141929626465,-9.576952934265136,26.50
4,961,0.006391684990376,-0.050068192183971,0.006391684990376,-0.972060739994049,2.327199459075928,-9.586529731750488,26.50
4,962,0.007456964813173,-0.049002911895514,0.005326403304935,-1.029522418975830,2.351141929626465,-9.600895881652832,26.51
4,963,0.006391684990376,-0.050068192183971,0.006391684990376,-1.024734020233154,2.322411060333252,-9.576952934265136,26.50
4,964,0.006391684990376,-0.049002911895514,0.007456964813173,-1.005580067634582,2.351141929626465,-9.596106529235839,26.51
4,965,0.005326403304935,-0.050068192183971,0.006391684990376,-1.067830204963684,2.317622661590576,-9.548221588134765,26.53
4,966,0.006391684990376,-0.047937631607056,0.006391684990376,-0.943329870700836,2.336776494979858,-9.610472679138183,26.51
4,967,0.006391684990376,-0.050068192183971,0.007456964813173,-1.005580067634582,2.327199459075928,-9.538644790649414,26.50
4,968,0.007456964813173,-0.047937631607056,0.006391684990376,-1.034310936927795,2.331988096237183,-9.553009986877441,26.51
4,969,0.007456964813173,-0.050068192183971,0.006391684990376,-0.976849198341370,2.351141929626465,-9.567376136779785,26.50
4,970,0.007456964813173,-0.050068192183971,0.006391684990376,-0.976849198341370,2.351141929626465,-9.567376136779785,26.50
4,971,0.006391684990376,-0.050068192183971,0.006391684990376,-1.029522418975830,2.322411060333252,-9.567376136779785,26.52
4,972,0.006391684990376,-0.050068192183971,0.006391684990376,-1.010368585586548,2.331988096237183,-9.557799339294433,26.52
4,973,0.007456964813173,-0.049002911895514,0.006391684990376,-1.058253288269043,2.317622661590576,-9.543433189392089,26.51
4,974,0.006391684990376,-0.049002911895514,0.005326403304935,-1.000791549682617,2.327199459075928,-9.605684280395507,26.51
4,975,0.007456964813173,-0.050068192183971,0.006391684990376,-1.019945502281189,2.355930328369141,-9.543433189392089,26.51
